"Time (s)","Linear Acceleration x (m/s^2)","Linear Acceleration y (m/s^2)","Linear Acceleration z (m/s^2)","Absolute acceleration (m/s^2)"
5.132468000E-3,0.000000000E0,0.000000000E0,0.000000000E0,0.000000000E0
9.847259000E-3,2.950153351E-1,-3.005146980E-2,1.440763474E-1,3.296894488E-1
1.456267600E-2,6.284632683E-1,-5.717277527E-2,3.563797474E-1,7.247353518E-1
1.927762400E-2,1.004387856E0,-1.086649895E-1,5.379552841E-1,1.144551848E0
2.399257200E-2,1.373306274E0,-8.191466331E-2,5.737490654E-1,1.490593213E0
2.870752000E-2,1.771623373E0,-1.670892239E-1,4.321162701E-1,1.831199786E0
3.342246800E-2,2.145722389E0,-4.823570251E-1,2.000708580E-1,2.208352603E0
3.813741600E-2,2.290897846E0,-1.939008236E-1,1.901226044E-1,2.306936730E0
4.285236400E-2,2.332173824E0,3.110780716E-1,4.143755436E-1,2.389039850E0
4.756731100E-2,2.367678642E0,8.691873550E-1,7.037801743E-1,2.618529233E0
5.228225900E-2,2.467383146E0,1.455767155E0,1.092333555E0,3.066012100E0
5.699720700E-2,2.659125328E0,1.936441183E0,1.563921452E0,3.642334728E0
6.171220700E-2,2.927182674E0,2.182739496E0,2.077658415E0,4.201120637E0
6.642710300E-2,3.094344139E0,2.265515566E0,2.546370029E0,4.603425546E0
7.114210300E-2,3.127665520E0,2.163107395E0,3.043231010E0,4.870583147E0
7.585705100E-2,2.997821331E0,1.947602749E0,3.142045498E0,4.759468364E0
8.057199900E-2,2.458806276E0,1.514086723E0,3.540440083E0,4.568687217E0
8.528694700E-2,1.454707265E0,7.886376381E-1,4.553111553E0,4.844475964E0
9.000189500E-2,1.262394905E0,1.196148396E-1,4.210433960E0,4.397238081E0
9.471684300E-2,1.141535163E0,-8.073310852E-1,4.442466736E0,4.657294999E0
9.943179100E-2,1.030000567E0,-1.644532204E0,5.186568737E0,5.537678449E0
1.041467390E-1,7.466069460E-1,-2.817045689E0,5.249250889E0,6.003982282E0
1.088616860E-1,4.223494232E-1,-3.279639006E0,4.540090084E0,5.616656391E0
1.135766340E-1,-1.897507906E-2,-3.321864367E0,4.175158024E0,5.335455693E0
1.182915820E-1,3.172159195E-2,-3.168328285E0,3.770982742E0,4.925405691E0
1.230065300E-1,2.458663583E-1,-2.900144577E0,3.229790688E0,4.347739265E0
1.277214780E-1,5.122260451E-1,-2.571848392E0,2.692203045E0,3.758289093E0
1.324364260E-1,7.459279299E-1,-2.267952204E0,2.562219620E0,3.502140068E0
1.371513740E-1,9.379714131E-1,-1.912731171E0,2.954913139E0,3.642779511E0
1.418663220E-1,1.067922592E0,-1.525452852E0,3.669112682E0,4.114590252E0
1.465812700E-1,1.167294741E0,-1.078683138E0,4.487883091E0,4.761011338E0
1.512962180E-1,1.214532971E0,-6.434213519E-1,5.270490646E0,5.446756193E0
1.560111660E-1,1.210504174E0,-3.072853088E-1,5.791756630E0,5.924878858E0
1.607261140E-1,1.172761559E0,-6.296014786E-2,5.883228302E0,5.999309036E0
1.654410610E-1,1.162226319E0,5.464839935E-2,5.417160988E0,5.540702991E0
1.701560090E-1,1.147609115E0,7.168626785E-2,4.347125053E0,4.496625605E0
1.748709570E-1,1.022713900E0,8.803784847E-2,2.910695076E0,3.086395990E0
1.795859050E-1,1.029856682E0,-8.233270645E-1,8.817672729E-1,1.586185917E0
1.843008530E-1,8.853064775E-1,-1.613418221E0,-1.135374069E0,2.162396863E0
1.890158010E-1,-3.689923882E-2,-1.105643511E0,-9.505696297E-1,1.458558106E0
1.937307490E-1,-6.575391293E-1,-3.549956977E-1,3.322515488E-1,8.177840446E-1
1.984456970E-1,-1.204689980E0,5.926851034E-1,1.857057571E0,2.291553273E0
2.031606450E-1,-1.516038775E0,1.373973250E0,2.956338882E0,3.595290760E0
2.078755930E-1,-1.528763771E0,2.072485447E0,3.397970200E0,4.263627103E0
2.125905410E-1,-1.383677483E0,2.644197464E0,3.066268921E0,4.278825622E0
2.173054890E-1,-1.110771894E0,2.861124754E0,2.020138741E0,3.674344784E0
2.220204360E-1,-1.180658340E0,1.289489865E0,5.382537842E-2,1.749181352E0
2.267353840E-1,-8.656598330E-1,5.978685617E-1,-1.578308582E0,1.896805669E0
2.314503320E-1,-4.545697570E-1,7.365536690E-2,-3.067447662E0,3.101821068E0
2.361652800E-1,-5.264610052E-2,-4.619615078E-1,-4.122254848E0,4.148393072E0
2.408802280E-1,2.410005927E-1,-1.025817990E0,-4.672302246E0,4.789654697E0
2.455951760E-1,4.025189877E-1,-1.573730230E0,-5.159605026E0,5.409267270E0
2.503101240E-1,3.150738180E-1,-2.409479141E0,-5.816139221E0,6.303359159E0
2.550250720E-1,-1.299464703E-1,-3.445127010E0,-7.034551620E0,7.833945539E0
2.597400720E-1,-1.013616204E0,-4.119303226E0,-8.293962479E0,9.315894508E0
2.644550200E-1,-2.176526546E0,-4.214866638E0,-9.157335281E0,1.031305765E1
2.691699680E-1,-2.701498747E0,-3.815546274E0,-9.401023865E0,1.049932086E1
2.738849160E-1,-3.056000471E0,-3.565363884E0,-8.784710884E0,9.961029255E0
2.785998640E-1,-4.308668613E0,-3.540747166E0,-6.614262104E0,8.651588229E0
2.833148110E-1,-5.848816395E0,-2.905524254E0,-3.420368195E0,7.372221036E0
2.880297590E-1,-6.252762794E0,-1.908209205E0,-1.396292686E0,6.684903754E0
2.927447070E-1,-6.467693806E0,-1.745255113E0,7.556458473E0,1.009836834E1
2.974596550E-1,-6.231089115E0,-3.495749235E0,2.998731422E1,3.082670512E1
3.021746030E-1,-5.090338230E0,-3.986086369E0,1.411286354E0,6.617564281E0
3.068895510E-1,-3.904285908E0,-6.287693977E0,-2.012139320E0,7.669892349E0
3.116044990E-1,-2.686675310E0,-5.828404427E0,3.177776337E0,7.161479235E0
3.163194470E-1,-2.557783127E0,-5.220343113E0,1.480209351E0,5.998771246E0
3.210343950E-1,-2.454795837E0,-3.997109413E0,2.837232590E0,5.482042962E0
3.257493430E-1,-2.399524689E0,-2.741339684E0,2.417517662E0,4.372305300E0
3.304642910E-1,-1.934093952E0,-1.882334948E0,1.510646820E0,3.092888308E0
3.351792390E-1,-9.722201824E-1,-1.264154434E0,6.287374496E-1,1.714237235E0
3.398941860E-1,1.519593596E-1,-6.608536243E-1,2.574729919E-1,7.253354406E-1
3.446091340E-1,9.440792203E-1,-1.717559099E-1,5.458345413E-1,1.103956980E0
3.493240820E-1,1.416802883E0,2.119872570E-1,1.603542328E0,2.150259753E0
3.540390300E-1,1.663511992E0,3.847305775E-1,2.779194832E0,3.261780752E0
3.587539780E-1,1.931151628E0,3.834087849E-1,3.826772690E0,4.303549480E0
3.634689260E-1,2.302403927E0,3.441722393E-1,4.692120552E0,5.237892100E0
3.681838740E-1,2.461353302E0,2.275733948E-1,5.094685555E0,5.662673452E0
3.728988220E-1,2.597006559E0,2.980833054E-1,4.648675919E0,5.333243340E0
3.776137700E-1,2.843276978E0,7.662415504E-1,3.459690094E0,4.543215341E0
3.823287180E-1,2.145886421E0,7.779419422E-1,2.368415833E0,3.289288031E0
3.870436660E-1,1.500097394E0,7.701590061E-1,1.566851616E0,2.301838629E0
3.917585610E-1,9.965478778E-1,8.105213642E-1,1.145432472E0,1.721065979E0
3.964735610E-1,5.531042814E-1,6.684930325E-1,4.654607773E-1,9.846121144E-1
4.011885090E-1,-4.516726732E-2,2.724552155E-1,-6.384372711E-2,2.834571360E-1
4.059034570E-1,-1.458319664E0,-1.759380579E0,-6.902318001E-1,2.387160699E0
4.106184050E-1,-1.619482517E0,-2.289078951E0,-6.376338005E-1,2.875618704E0
4.153333530E-1,-1.204417944E0,-2.548428535E0,-9.077754021E-1,2.961277894E0
4.200483010E-1,-1.850320458E0,-1.907587528E0,2.397031784E-1,2.668339107E0
4.247632490E-1,-2.011839151E0,-1.102063775E0,6.696233749E-1,2.389652025E0
4.294781970E-1,-1.967954040E0,-5.512622595E-1,1.109722137E0,2.325557224E0
4.341931450E-1,-1.793096304E0,-1.070835590E-1,1.773065567E0,2.523969641E0
4.389080930E-1,-1.423153043E0,2.537822723E-1,2.354402542E0,2.762785072E0
4.436230410E-1,-7.442439198E-1,6.399784088E-1,2.613321304E0,2.791580129E0
4.483379890E-1,1.223800182E-1,9.607927799E-1,2.330863953E0,2.524089222E0
4.530529360E-1,1.012780905E0,1.170020819E0,1.607413292E0,2.231244354E0
4.577678840E-1,1.725954533E0,1.293735266E0,3.905191422E-1,2.192070981E0
4.624828320E-1,2.232587337E0,1.363216877E0,-1.007241726E0,2.803095141E0
4.671977800E-1,2.281077385E0,1.499702930E0,-2.281332493E0,3.557653842E0
4.719127280E-1,1.921841741E0,1.429924488E0,-3.182505608E0,3.983277753E0
4.766276760E-1,1.498692632E0,1.162526131E0,-3.790790081E0,4.238824843E0
4.813426240E-1,1.318696856E0,6.108069420E-1,-4.393668175E0,4.627782033E0
4.860575720E-1,1.192233562E0,2.048251629E-1,-4.399593353E0,4.562871452E0
4.907725200E-1,3.421571255E-1,-2.074806690E-1,-3.512452126E0,3.535171801E0
4.954874680E-1,-7.559449673E-1,-7.431361675E-1,-2.676007748E0,2.878319236E0
5.002024160E-1,-1.877780795E0,-1.386138439E0,-2.378203869E0,3.332160580E0
5.049173640E-1,-2.794051647E0,-1.880777836E0,-2.115114689E0,3.977154765E0
5.096322590E-1,-3.456632614E0,-2.182429552E0,-1.738420963E0,4.442230884E0
5.143472590E-1,-3.684318066E0,-2.383816481E0,-1.419103146E0,4.612009796E0
5.190622070E-1,-3.610068798E0,-2.591422319E0,-1.226913452E0,4.610139150E0
5.237771550E-1,-3.356145620E0,-2.920448780E0,-1.155025482E0,4.596391886E0
5.284921030E-1,-2.982994795E0,-3.295285463E0,-1.352983952E0,4.646259765E0
5.332070510E-1,-2.640314579E0,-3.584226608E0,-1.613319397E0,4.735054480E0
5.379219990E-1,-2.266613722E0,-3.737267733E0,-1.806600571E0,4.729536287E0
5.426369470E-1,-1.927947283E0,-3.847083092E0,-1.932900906E0,4.717322858E0
5.473518950E-1,-1.614594221E0,-4.024016857E0,-2.148812294E0,4.839113601E0
5.520668430E-1,-1.237017155E0,-4.134900570E0,-2.519358158E0,4.997477333E0
5.567817910E-1,-1.080976486E0,-4.270553112E0,-3.004676342E0,5.332374140E0
5.614967390E-1,-1.149483919E0,-4.393110275E0,-3.418170929E0,5.683715657E0
5.662116860E-1,-1.436099887E0,-4.380164146E0,-3.764436722E0,5.951403588E0
5.709266340E-1,-1.772907376E0,-4.291298389E0,-3.986230373E0,6.119515914E0
5.756415820E-1,-2.021930218E0,-4.176357746E0,-4.202260971E0,6.260124847E0
5.803565300E-1,-2.281894922E0,-4.043078899E0,-3.970619917E0,6.108956862E0
5.850714780E-1,-2.536103725E0,-4.241485596E0,-3.351665974E0,5.971238311E0
5.897864260E-1,-2.703871727E0,-4.828089714E0,-2.855498791E0,6.226977272E0
5.945013740E-1,-2.898573637E0,-5.732871056E0,-2.792083263E0,7.004517729E0
5.992163220E-1,-3.258070707E0,-6.646675587E0,-3.164024115E0,8.050116129E0
6.039312700E-1,-3.901875019E0,-7.422677040E0,-3.519218922E0,9.094265497E0
6.086462180E-1,-4.649227619E0,-8.023615837E0,-3.492493868E0,9.909149407E0
6.133611660E-1,-5.136611462E0,-8.479201317E0,-3.218091249E0,1.042294313E1
6.180761140E-1,-5.159229279E0,-8.771334648E0,-3.077754498E0,1.063139365E1
6.227910610E-1,-4.809426785E0,-8.887086868E0,-3.160883904E0,1.058782726E1
6.275060090E-1,-3.981068611E0,-8.890130997E0,-3.531981707E0,1.036138172E1
6.322209570E-1,-2.907679319E0,-8.564646721E0,-3.864483833E0,9.835751510E0
6.369359050E-1,-2.178041458E0,-8.001958847E0,-3.790871382E0,9.118438233E0
6.416508530E-1,-1.598675728E0,-7.351233959E0,-3.657932758E0,8.365218280E0
6.463658010E-1,-8.986115456E-1,-6.775394440E0,-3.864840984E0,7.851781222E0
6.510807490E-1,-1.704592705E-1,-6.493550301E0,-4.041727543E0,7.650543340E0
6.557956450E-1,5.797562599E-1,-6.514688969E0,-3.887724161E0,7.608658806E0
6.605106450E-1,1.522408485E0,-6.649282932E0,-3.356186390E0,7.602281118E0
6.652255930E-1,2.755522728E0,-6.790944099E0,-2.434136391E0,7.722360211E0
6.699405410E-1,4.328816891E0,-6.767828941E0,-1.360608101E0,8.148215673E0
6.746554890E-1,6.144923210E0,-6.347524643E0,-1.225094795E-1,8.835505584E0
6.793704360E-1,8.297224045E0,-5.393990517E0,1.064128399E0,9.953463206E0
6.840853840E-1,1.052180481E1,-3.971526623E0,2.017336130E0,1.142589363E1
6.888003320E-1,1.263214493E1,-2.376358509E0,2.551504850E0,1.310451610E1
6.935152800E-1,1.440472221E1,-7.307395935E-1,2.791269302E0,1.469085385E1
6.982302280E-1,1.564148331E1,8.068463802E-1,2.859846115E0,1.592123491E1
7.029451760E-1,1.629326630E1,2.103685617E0,2.850740433E0,1.667401394E1
7.076601240E-1,1.653003883E1,2.905691147E0,2.481558084E0,1.696594694E1
7.123750720E-1,1.619301987E1,3.185055017E0,1.909133673E0,1.661334582E1
7.170900200E-1,1.560952091E1,3.232971191E0,1.303733349E0,1.599402909E1
7.218049680E-1,1.488077354E1,3.205452204E0,5.794618130E-1,1.523312578E1
7.265199160E-1,1.410692787E1,3.094989538E0,-7.671284676E-2,1.444265416E1
7.312348640E-1,1.332530594E1,2.955229998E0,-7.203207016E-1,1.366806587E1
7.359497590E-1,1.250636196E1,2.601256609E0,-1.315760016E0,1.284160620E1
7.406647590E-1,1.182983589E1,2.334359884E0,-2.007468700E0,1.222391852E1
7.453797070E-1,1.143112373E1,2.486650229E0,-2.847493649E0,1.204002655E1
7.500946550E-1,1.142067719E1,3.187630177E0,-3.720691681E0,1.242724427E1
7.548094990E-1,1.149012375E1,4.014474869E0,-4.428032875E0,1.295169593E1
7.595244470E-1,1.160452938E1,4.685075760E0,-4.939265251E0,1.345404691E1
7.642394470E-1,1.174857235E1,5.118870735E0,-5.249028206E0,1.384861318E1
7.689543950E-1,1.186948872E1,5.335623741E0,-5.305871964E0,1.405367996E1
7.736693430E-1,1.187729836E1,5.326593399E0,-5.103008270E0,1.398154165E1
7.783842910E-1,1.163538265E1,5.092986107E0,-4.701307774E0,1.354337224E1
7.830992390E-1,1.111742592E1,4.807362556E0,-4.190268517E0,1.281663934E1
7.878141860E-1,1.045425797E1,4.551318645E0,-3.630234957E0,1.196597747E1
7.925291340E-1,9.642472267E0,4.325180054E0,-3.170781612E0,1.103350851E1
7.972440820E-1,8.759704590E0,4.101204395E0,-2.694473743E0,1.004054235E1
8.019590300E-1,7.612033844E0,3.732785702E0,-1.138591290E0,8.554129907E0
8.066739780E-1,6.496073723E0,3.682803631E0,-1.418731213E-1,7.468744498E0
8.113889260E-1,5.749254227E0,3.592761993E0,1.327822208E-1,6.780818094E0
8.161038740E-1,5.207505226E0,3.315538168E0,1.563607454E-1,6.175382798E0
8.208188220E-1,4.593222618E0,3.175468445E0,2.698099613E-2,5.584086482E0
8.255337700E-1,4.015632629E0,3.142633200E0,-1.430779696E-1,5.101168508E0
8.302487180E-1,3.545361519E0,3.135384798E0,-6.035438776E-1,4.771214871E0
8.349636660E-1,3.105489731E0,3.139825821E0,-1.141889215E0,4.561412460E0
8.396786140E-1,2.572463989E0,3.033293962E0,-1.586563826E0,4.282012145E0
8.443935610E-1,2.032959938E0,2.874682903E0,-1.977045059E0,4.037998894E0
8.491085090E-1,1.596754074E0,2.788844585E0,-2.513883591E0,4.080059853E0
8.538234570E-1,1.353780746E0,2.851920366E0,-3.072501421E0,4.405273779E0
8.585384050E-1,1.188646317E0,2.958437681E0,-3.652256489E0,4.848114174E0
8.632533530E-1,1.062761307E0,3.108216286E0,-4.276406288E0,5.392413265E0
8.679683010E-1,9.425134659E-1,3.391414642E0,-4.673112869E0,5.850470819E0
8.726832490E-1,9.656105042E-1,3.635608196E0,-5.099699020E0,6.336953582E0
8.773981970E-1,1.178490639E0,3.616819620E0,-5.721213341E0,6.870408026E0
8.821131450E-1,1.260659218E0,3.412421703E0,-6.257554531E0,7.238153926E0
8.868280930E-1,1.173895836E0,3.357192993E0,-8.435602188E0,9.154679705E0
8.915430410E-1,6.383819580E-1,2.871248722E0,-9.982147217E0,1.040648182E1
8.962579890E-1,-5.258750916E-2,2.443661213E0,-1.154659653E1,1.180246317E1
9.009729360E-1,-8.971939087E-1,2.441541910E0,-1.260667229E1,1.287222863E1
9.056878840E-1,-1.950356483E0,2.601502657E0,-1.256551456E1,1.297936296E1
9.104028320E-1,-2.557380199E0,2.456292152E0,-1.024291325E1,1.083931900E1
9.151177800E-1,-2.462809086E0,1.992741108E0,-6.474142551E0,7.207701956E0
9.198327280E-1,-1.908639431E0,1.368513346E0,-2.861140251E0,3.701601922E0
9.245476760E-1,-1.421954155E0,1.001749396E0,-6.484051347E-1,1.856309427E0
9.292625720E-1,-1.203459263E0,9.989701509E-1,2.669322491E-1,1.586665808E0
9.339775200E-1,-1.147882938E0,1.199939251E0,3.732380867E-1,1.701997684E0
9.386924680E-1,-1.278525352E0,1.384228230E0,8.242753148E-2,1.886136041E0
9.434074160E-1,-1.775033951E0,1.352955461E0,-3.605281115E-1,2.260799532E0
9.481223640E-1,-2.568190098E0,1.032801628E0,-8.516985178E-1,2.896147432E0
9.528373110E-1,-3.336771965E0,6.745443344E-1,-1.244601846E0,3.624650460E0
9.575522590E-1,-4.061236382E0,1.274518967E-1,-1.402533412E0,4.298486350E0
9.622672070E-1,-4.650631905E0,-5.297613144E-1,-1.289104700E0,4.854978382E0
9.669821550E-1,-5.171479702E0,-1.328129768E0,-1.034179688E0,5.438534602E0
9.716971030E-1,-5.428034306E0,-2.122617722E0,-5.528235435E-1,5.854457813E0
9.764120510E-1,-5.344756126E0,-2.707805157E0,6.331931800E-2,5.991880853E0
9.811269990E-1,-4.813571930E0,-3.028218269E0,7.417294979E-1,5.735045184E0
9.858419470E-1,-4.036860943E0,-3.134252071E0,1.561550021E0,5.343989220E0
9.905568950E-1,-3.054528713E0,-3.138685703E0,2.343095064E0,4.967050240E0
9.952718430E-1,-1.283055305E0,-2.935760260E0,4.258067131E0,5.328794884E0
9.999867910E-1,-8.944034576E-2,-2.714471817E0,5.037593365E0,5.723085158E0
1.004701739E0,1.028323174E0,-2.157581806E0,4.428253651E0,5.032100773E0
1.009416686E0,2.458674431E0,-1.466617584E0,3.879148483E0,4.821186581E0
1.014131634E0,8.380212784E0,-1.788223743E0,2.925030589E-1,8.573871267E0
1.018846582E0,9.924645424E0,-8.286476135E-1,-1.132362366E0,1.002334715E1
1.023561530E0,8.587214470E0,6.599764824E-1,-1.003058076E0,8.670752379E0
1.028276478E0,5.643416405E0,1.345348835E0,-2.084664851E-1,5.805305374E0
1.032991426E0,2.753244400E0,1.272400141E0,4.916742742E-1,3.072637375E0
1.037706374E0,4.397869110E-2,9.464528561E-1,9.450817108E-1,1.338240103E0
1.042421322E0,-2.758536816E0,6.641452312E-1,1.393608570E0,3.161132566E0
1.047136270E0,-5.370330811E0,4.668407440E-1,1.628114939E0,5.631087954E0
1.051851166E0,-6.862080097E0,6.978025436E-1,1.644829988E0,7.090877050E0
1.056566166E0,-6.525481701E0,1.703857660E0,2.401338816E0,7.159013232E0
1.061281114E0,-3.491939068E0,3.620957851E0,2.857708454E0,5.785453467E0
1.065996009E0,1.042075634E0,3.351339817E0,1.142087340E0,3.690767358E0
1.070710957E0,4.533717632E0,2.521554708E0,-7.366529703E-1,5.239798786E0
1.075425905E0,7.213041782E0,2.174249172E0,-2.310883522E0,7.880070677E0
1.080140853E0,8.449495316E0,2.226755142E0,-3.383335829E0,9.370131850E0
1.084855801E0,8.165529251E0,2.070567608E0,-3.596958637E0,9.159761438E0
1.089570749E0,6.289710999E0,1.925302267E0,-2.852410793E0,7.169623463E0
1.094285697E0,4.108393192E0,1.604035139E0,-1.695766687E0,4.725192907E0
1.099000645E0,1.302249908E0,5.070357323E-1,4.338254929E-1,1.463265053E0
1.103715593E0,-3.080821037E-1,-1.030502319E0,2.664150715E0,2.873073032E0
1.108430489E0,1.025678158E0,-2.397282124E0,3.517368317E0,4.378453738E0
1.113145489E0,3.260149956E0,-3.881377697E0,2.655206680E0,5.722219244E0
1.117860436E0,4.699254990E0,-4.549375057E0,1.736344218E0,6.767178298E0
1.122575384E0,4.284348488E0,-4.465983868E0,7.119118571E-1,6.229564380E0
1.127290332E0,2.221138954E0,-4.980177879E0,1.309546471E0,5.608078274E0
1.132005280E0,8.906259537E-1,-3.272063255E0,5.922551751E-1,3.442437905E0
1.136720228E0,8.044309616E-1,-1.705273151E0,1.461553574E-2,1.885544830E0
1.141435176E0,-2.756834030E-1,-8.775234222E-1,1.753678620E-1,9.363773717E-1
1.146150124E0,-7.489786148E-1,6.389942169E-1,1.515603662E-1,9.961190287E-1
1.150865072E0,1.606955528E-1,2.304202318E0,-1.642531157E-1,2.315631765E0
1.155580020E0,1.009799957E0,3.646875620E0,-4.794011414E-1,3.814344399E0
1.160294968E0,1.658258438E0,4.604193687E0,-3.662008345E-1,4.907394789E0
1.165009916E0,1.334431648E0,5.940021515E0,8.284632564E-1,6.144177308E0
1.169724864E0,1.224377632E0,6.108838081E0,1.450648665E0,6.396982479E0
1.174439759E0,1.522538185E0,5.596722126E0,1.283194423E0,5.940371117E0
1.179154707E0,1.336618900E0,4.902902603E0,8.638317585E-1,5.154726892E0
1.183869655E0,-3.255028725E-1,4.521440506E0,-5.041432381E-1,4.561089428E0
1.188584603E0,-1.621100426E0,4.262070656E0,-1.195900202E0,4.714169085E0
1.193299551E0,-1.569021702E0,3.781594515E0,-1.762377501E0,4.457382711E0
1.198014499E0,-2.575118780E0,4.345334053E0,-8.595972061E-1,5.123677597E0
1.202729447E0,-2.270887852E0,4.632829666E0,2.217096329E0,5.615652988E0
1.207444395E0,-4.684371948E-1,3.537123680E0,5.526864529E-1,3.610559465E0
1.212159343E0,9.926352501E-1,2.576881886E0,-8.488654494E-1,2.888982095E0
1.216874291E0,2.352541447E0,1.968250275E0,-4.372307777E0,5.340930228E0
1.221589239E0,3.198797226E0,2.056207657E0,-5.805866718E0,6.940344514E0
1.226304186E0,3.356881142E0,2.632912159E0,-4.261286259E0,6.029878773E0
1.231019134E0,3.393509388E0,3.149249792E0,-1.834219217E0,4.979763082E0
1.235734082E0,3.510538101E0,3.267737150E0,-1.003311872E-1,4.797087678E0
1.240449030E0,4.374573231E0,2.684182167E0,1.669822216E0,5.397224388E0
1.245163978E0,5.533104897E0,1.190403461E0,1.432201624E0,5.838108571E0
1.249878926E0,5.154333115E0,-8.956871033E-1,2.920450687E0,5.991530477E0
1.254593874E0,5.279113770E0,-2.394258499E0,6.558208466E-1,5.833662395E0
1.259308822E0,4.183088303E0,-3.374232292E0,-2.072841167E0,5.760238000E0
1.264023770E0,2.628692627E0,-3.479923248E0,-2.125736237E0,4.851664177E0
1.268738666E0,1.531150818E0,-3.113405228E0,7.624250650E-2,3.470378633E0
1.273453666E0,-1.316552639E0,-3.024042606E0,2.036089420E0,3.876055297E0
1.278168561E0,-4.266786575E0,-3.153347492E0,3.523167610E0,6.368812927E0
1.282883509E0,-7.153218746E0,-2.705691814E0,4.016185760E0,8.638232151E0
1.287598457E0,-8.510396957E0,-1.881710529E0,3.459630013E0,9.377458649E0
1.292313405E0,-8.115888596E0,-1.507577896E0,-1.926291585E-1,8.256969468E0
1.297028353E0,-6.655653000E0,-1.211359978E0,-4.081112385E0,7.900670108E0
1.301743301E0,-4.956514359E0,-8.864574432E-1,-5.940451145E0,7.787284584E0
1.306458249E0,-3.126255035E0,-8.181557655E-1,-5.651889324E0,6.510507072E0
1.311173197E0,-1.753054380E0,-9.182043076E-1,-4.905269146E0,5.289420025E0
1.315888145E0,-1.001666546E0,-2.961888313E-1,-3.983056307E0,4.117742250E0
1.320603093E0,-8.908362389E-1,2.491521835E-1,-1.939908028E0,2.149164761E0
1.325318041E0,-1.690017223E0,-1.310781956E0,-1.174886107E0,2.440218211E0
1.330032989E0,-2.559094667E0,-3.686378956E0,4.731839895E-2,4.487827353E0
1.334747936E0,-2.903502941E0,-8.802571297E0,1.400961399E1,1.679835929E1
1.339462884E0,-1.722800016E0,-1.046986580E1,9.614106178E0,1.431842056E1
1.344177832E0,1.594543457E-1,-7.459084511E0,-1.500190544E1,1.675471678E1
1.348892780E0,1.408273220E0,-4.695664406E0,-1.588607502E1,1.662527826E1
1.353607728E0,1.007469654E0,-2.814283371E0,-1.120211601E1,1.159407561E1
1.358322676E0,-1.127705097E0,-2.694246292E0,-4.993398666E0,5.784869239E0
1.363037624E0,-1.966623306E0,-2.321168900E0,-7.349224687E-1,3.129783271E0
1.367752572E0,-2.316974163E0,-9.048204422E-1,2.626107216E0,3.617113271E0
1.372467520E0,-2.104339838E0,8.010764122E-1,4.161187172E0,4.731326268E0
1.377182468E0,-1.276744604E0,2.293049335E0,6.275178432E0,6.801912701E0
1.381897364E0,-4.255223274E-1,2.954916000E0,7.816046238E0,8.366790102E0
1.386612311E0,1.754224300E-1,3.317594528E0,5.810701370E0,6.693389044E0
1.391327259E0,6.912374496E-1,3.696100712E0,-3.274300098E-1,3.774411225E0
1.396042207E0,9.439775944E-1,3.580294609E0,-5.672302723E0,6.773818817E0
1.400757155E0,9.746763706E-1,3.339993000E0,-7.010227203E0,7.826163346E0
1.405472103E0,8.655271530E-1,3.047948837E0,-5.110054493E0,6.012635553E0
1.410187051E0,6.154351234E-1,2.766937256E0,-1.408490539E0,3.165208961E0
1.414901999E0,5.986206532E-1,2.010813236E0,2.241657257E0,3.070300281E0
1.419616947E0,4.411728382E-1,1.206113815E0,4.093376637E0,4.290113786E0
1.424331843E0,-1.212983131E-1,3.917226791E-1,4.014451027E0,4.035341000E0
1.429046843E0,-8.785973787E-1,-4.077367783E-1,3.268675327E0,3.409167205E0
1.433761791E0,-1.441057682E0,-9.962224960E-1,2.426755667E0,2.993033506E0
1.438476739E0,-1.850302696E0,-1.254731178E0,1.592662454E0,2.744912401E0
1.443191686E0,-2.091501951E0,-1.331930161E0,7.534750104E-1,2.591552229E0
1.447906634E0,-2.369748116E0,-1.347434044E0,2.665309310E-1,2.739036942E0
1.452621582E0,-2.712568521E0,-1.305905342E0,-5.517864823E-1,3.060700094E0
1.457336530E0,-2.928638697E0,-1.140485764E0,-5.874249339E-1,3.197295802E0
1.462051478E0,-2.965583563E0,-1.290022850E0,-7.311494350E-1,3.315633321E0
1.466766374E0,-2.809974194E0,-1.805608749E0,-7.944667339E-2,3.341031233E0
1.471481322E0,-2.519836426E0,-1.970641136E0,7.705929875E-2,3.199834408E0
1.476196270E0,-2.243168354E0,-1.610244751E0,-5.567797422E-1,2.816859262E0
1.480911218E0,-1.951538682E0,-1.122433662E0,-3.556962907E-1,2.279228028E0
1.485626166E0,-1.649837494E0,-7.319374084E-1,3.408400416E-1,1.836809206E0
1.490341114E0,-1.366670370E0,-2.715187073E-1,8.216687441E-1,1.617606205E0
1.495056061E0,-6.970033646E-1,-6.860218048E-1,1.463162422E0,1.759910191E0
1.499771009E0,1.052706480E0,-3.542490005E0,2.033347368E0,4.218047877E0
1.504485957E0,2.212922812E0,-7.492844582E0,2.333782434E0,8.153912420E0
1.509200905E0,3.337068081E0,-9.790835381E0,1.728719115E0,1.048737101E1
1.513915853E0,4.327517986E0,-1.096207619E1,1.222942472E0,1.184863345E1
1.518630801E0,5.101343155E0,-1.134449291E1,7.705672979E-1,1.246254370E1
1.523345749E0,5.552118778E0,-1.068332672E1,6.028447151E-1,1.205499542E1
1.528060697E0,5.540810585E0,-9.034591675E0,6.112490892E-1,1.061593397E1
1.532775645E0,4.612280846E0,-6.715842247E0,9.907582998E-1,8.207147720E0
1.537490541E0,2.856120586E0,-4.767997742E0,1.410166979E0,5.734090876E0
1.542205489E0,1.342894554E0,-3.031587601E0,1.653724432E0,3.705225184E0
1.546920436E0,3.352388144E-1,-1.429371834E0,1.530393839E0,2.120753216E0
1.551635384E0,-4.119050503E-1,-2.424440384E-1,1.127212048E0,1.224357743E0
1.556350332E0,-1.156832218E0,4.111995697E-1,6.126331091E-1,1.372102472E0
1.561065280E0,-1.741761923E0,7.383737564E-1,6.888106465E-2,1.893059693E0
1.565780228E0,-2.209792137E0,7.400894165E-1,-4.220371544E-1,2.368338868E0
1.570495176E0,-2.536802769E0,4.555578232E-1,-6.924223900E-1,2.668773123E0
1.575210124E0,-2.732494354E0,-9.414672852E-3,-7.708746791E-1,2.839165688E0
1.579925072E0,-2.677988529E0,-4.634933472E-1,-6.674244404E-1,2.798553917E0
1.584640020E0,-2.608035088E0,-8.161478043E-1,-4.257987142E-1,2.765727536E0
1.589354968E0,-2.503877401E0,-1.077293396E0,-1.520928741E-1,2.730035777E0
1.594069916E0,-2.352049828E0,-1.142368317E0,1.573831141E-1,2.619525378E0
1.598784864E0,-1.953833580E0,-5.970907211E-1,3.297463357E-1,2.069472308E0
1.603499811E0,-1.659212828E0,1.743316650E-2,5.266776681E-1,1.740884973E0
1.608214759E0,-1.891464949E0,-4.534702301E-1,1.057605863E0,2.214002047E0
1.612929707E0,-2.094302416E0,-1.161849022E0,1.292075872E0,2.721296716E0
1.617644655E0,-2.295009136E0,-1.896884918E0,1.370183945E0,3.277597195E0
1.622359499E0,-2.454702616E0,-2.567803383E0,1.288262248E0,3.778729782E0
1.627074499E0,-2.377905846E0,-2.845642090E0,1.123507857E0,3.874839999E0
1.631789447E0,-2.118882418E0,-2.497960091E0,7.948441505E-1,3.370644529E0
1.636504395E0,-1.636987329E0,-1.727293968E0,4.358307123E-1,2.419342964E0
1.641219343E0,-1.120582104E0,-7.737102509E-1,1.461998820E-1,1.369564241E0
1.645934291E0,-9.135100245E-1,-3.916730881E-1,8.739626408E-2,9.977707552E-1
1.650649239E0,-1.089770555E0,-8.655538559E-1,3.155674338E-1,1.427013015E0
1.655364186E0,-1.168561459E0,-1.300031662E0,4.093735814E-1,1.795328642E0
1.660079134E0,-1.100692630E0,-1.308374405E0,3.310003281E-1,1.741530668E0
1.664794082E0,-8.431263566E-1,-1.268757820E0,2.578712702E-1,1.545026230E0
1.669509030E0,-6.159857512E-1,-1.210117340E0,2.385456562E-1,1.378668362E0
1.674223978E0,-4.483973980E-1,-1.204308510E0,2.494716644E-1,1.309066585E0
1.678938926E0,-1.408863068E-1,-7.789545059E-1,3.334169388E-1,8.589446599E-1
1.683653874E0,1.519910097E-1,-9.291362762E-2,3.894827366E-1,4.282884674E-1
1.688368822E0,2.775239944E-1,2.761459351E-2,5.123729706E-1,5.833594040E-1
1.693083770E0,2.228986025E-1,-1.958065033E-1,8.721662164E-1,9.212480028E-1
1.697798718E0,2.561759949E-1,-2.942199707E-1,1.209288716E0,1.270657598E0
1.702513666E0,4.341071844E-1,-2.726850510E-1,1.275358200E0,1.374534366E0
1.707228561E0,6.647911072E-1,-1.651220322E-1,1.119307518E0,1.312273532E0
1.711943509E0,1.052251458E0,-1.978302002E-2,7.951657772E-1,1.319057661E0
1.716658457E0,1.280720115E0,3.905105591E-2,5.041306019E-1,1.376922896E0
1.721373405E0,1.426946282E0,1.167869568E-2,2.458968163E-1,1.448025321E0
1.726088353E0,1.495974064E0,-2.041721344E-2,3.909850121E-2,1.496624186E0
1.730803301E0,1.592828631E0,-4.599571228E-3,-1.932609081E-1,1.604516745E0
1.735518249E0,1.574331522E0,-2.680587769E-2,-4.417922497E-1,1.635365001E0
1.740233197E0,1.727051020E0,9.443664551E-2,-7.207040787E-1,1.873776367E0
1.744948145E0,1.811779857E0,2.106571198E-1,-1.096139431E0,2.128014174E0
1.749663093E0,1.838526368E0,2.024669647E-1,-1.424079418E0,2.334346647E0
1.754378041E0,1.788615823E0,2.562007904E-1,-1.598943233E0,2.412758768E0
1.759092989E0,1.819988132E0,2.999572754E-1,-1.840018749E0,2.605379082E0
1.763807936E0,1.846830606E0,2.716588974E-1,-1.965427399E0,2.710624781E0
1.768522884E0,1.707303047E0,2.336654663E-1,-1.932794809E0,2.589436043E0
1.773237832E0,1.512318254E0,2.434797287E-1,-1.776383877E0,2.345619013E0
1.777952780E0,1.357772470E0,3.012046814E-1,-1.611737251E0,2.128841776E0
1.782667728E0,1.253005266E0,2.731161118E-1,-1.496360064E0,1.970712574E0
1.787382676E0,1.021643639E0,2.215204239E-1,-1.434831619E0,1.775265839E0
1.792097572E0,6.980535984E-1,2.372274399E-1,-1.374485016E0,1.559732267E0
1.796812520E0,4.834179878E-1,3.534603119E-1,-1.339013815E0,1.466828258E0
1.801527416E0,2.011208534E-1,5.126819611E-1,-1.213787317E0,1.332881106E0
1.806242416E0,-2.917057276E-2,6.670303345E-1,-1.051529408E0,1.245590015E0
1.810957364E0,-1.173130870E-1,7.830066681E-1,-9.334201813E-1,1.223983267E0
1.815672311E0,-1.501981020E-1,9.609317780E-1,-7.402381897E-1,1.222252809E0
1.820387259E0,-1.238964796E-1,1.200687885E0,-4.534795284E-1,1.289436085E0
1.825102207E0,-1.635379195E-1,1.344811916E0,-1.267669201E-1,1.360637201E0
1.829817155E0,-2.324015796E-1,1.384153843E0,2.628793716E-1,1.427934844E0
1.834532103E0,-3.606212437E-1,1.376319408E0,7.531127930E-1,1.609807962E0
1.839247051E0,-5.439686179E-1,1.335895061E0,1.061686993E0,1.791004395E0
1.843961999E0,-6.869074106E-1,1.282205105E0,1.250879645E0,1.918486802E0
1.848676895E0,-8.565804958E-1,1.239226818E0,1.430706978E0,2.077579291E0
1.853391895E0,-9.099822044E-1,1.283415318E0,1.605778217E0,2.248053863E0
1.858106843E0,-8.240328431E-1,1.357240200E0,1.709429264E0,2.333083688E0
1.862821791E0,-7.475902438E-1,1.441387653E0,1.770952582E0,2.402657401E0
1.867536739E0,-5.234606862E-1,1.521299839E0,1.795906901E0,2.411150325E0
1.872251686E0,-2.715119123E-1,1.577629566E0,1.785219073E0,2.397840884E0
1.876966582E0,-9.645035863E-2,1.553122520E0,1.891937017E0,2.449677104E0
1.881681582E0,8.356136084E-2,1.529164314E0,1.929597855E0,2.463467857E0
1.886396478E0,1.686485112E-1,1.405579090E0,1.836154103E0,2.318524701E0
1.891111426E0,2.690648735E-1,1.254320145E0,1.769178271E0,2.185339033E0
1.895826374E0,8.937993646E-2,1.027827263E0,1.642374754E0,1.939539246E0
1.900541322E0,-2.051478624E-2,8.600196838E-1,1.627557278E0,1.840922976E0
1.905256270E0,-3.510798514E-1,6.551418304E-1,1.357307911E0,1.547498835E0
1.909971218E0,-5.384759307E-1,5.133867264E-1,1.042739391E0,1.280947968E0
1.914686166E0,-7.017545700E-1,3.772239685E-1,6.842510700E-1,1.050217561E0
1.919401114E0,-8.451626897E-1,2.896203995E-1,4.633395672E-1,1.006411199E0
1.924116061E0,-9.301626682E-1,1.883897781E-1,2.507917881E-1,9.816261095E-1
1.928831009E0,-8.471140862E-1,1.833143234E-1,9.920310974E-2,8.723804635E-1
1.933545957E0,-9.874603748E-1,2.578353882E-2,-1.343729496E-1,9.968946145E-1
1.938260905E0,-9.973322153E-1,-5.003738403E-2,-3.252019882E-1,1.050205514E0
1.942975853E0,-8.913902640E-1,-1.351137161E-1,-4.493615627E-1,1.007352040E0
1.947690801E0,-7.323374748E-1,-1.291885376E-1,-5.070269108E-1,9.000467452E-1
1.952405749E0,-5.258588195E-1,1.517295837E-2,-4.027144909E-1,6.625229640E-1
1.957120697E0,-3.970289826E-1,7.801628113E-2,-2.896924019E-1,4.976346460E-1
1.961835645E0,-2.078684270E-1,2.265472412E-1,-3.348970413E-1,4.546305794E-1
1.966550593E0,-2.601248026E-2,4.364881516E-1,-3.368353844E-1,5.519570923E-1
1.971265541E0,1.003217101E-1,6.263685226E-1,-4.240026474E-1,7.630073503E-1
1.975980489E0,1.327621043E-1,8.437414169E-1,-5.571541786E-1,1.019777492E0
1.980695436E0,9.049099684E-2,9.833040237E-1,-5.873966217E-1,1.148960493E0
1.985410384E0,-9.778201580E-2,1.069102287E0,-6.580820084E-1,1.259211242E0
1.990125280E0,-3.884032965E-1,1.039249420E0,-5.877823830E-1,1.255541560E0
1.994840228E0,-8.236373663E-1,8.749017715E-1,-5.676043034E-1,1.328911685E0
1.999555176E0,-1.254893661E0,6.145687103E-1,-4.015808105E-1,1.453863799E0
2.004270124E0,-1.757812262E0,1.918210983E-1,-3.245370388E-1,1.797782960E0
2.008985072E0,-2.083686829E0,-2.783441544E-1,-3.554003239E-1,2.132026186E0
2.013700020E0,-2.385403156E0,-7.337541580E-1,-4.365122318E-1,2.533591583E0
2.018414968E0,-2.681592226E0,-1.231827736E0,-6.149811745E-1,3.014388542E0
2.023129916E0,-2.919228077E0,-1.758242607E0,-9.091005325E-1,3.527006296E0
2.027844864E0,-3.026331186E0,-2.141166687E0,-1.389581203E0,3.959066955E0
2.032559811E0,-3.112510920E0,-2.404909134E0,-1.759377718E0,4.308911942E0
2.037274759E0,-3.096722126E0,-2.440068245E0,-1.917942286E0,4.384304229E0
2.041989707E0,-2.917623758E0,-2.142168045E0,-1.846670628E0,4.063447395E0
2.046704655E0,-2.728737354E0,-1.540539742E0,-1.599112034E0,3.518015000E0
2.051419603E0,-2.429760456E0,-6.500368118E-1,-1.281414509E0,2.822818959E0
2.056134551E0,-2.092228174E0,2.757997513E-1,-1.047176838E0,2.355857289E0
2.060849499E0,-1.711173654E0,1.117667198E0,-8.012390137E-1,2.195285675E0
2.065564447E0,-1.253349304E0,1.842326164E0,-4.195251465E-1,2.267388701E0
2.070279395E0,-8.765725493E-1,2.445310116E0,1.260881424E-1,2.600734361E0
2.074994343E0,-4.850399792E-1,2.860015392E0,7.350673676E-1,2.992536693E0
2.079709291E0,-1.741474271E-1,3.125134945E0,1.325832009E0,3.399209653E0
2.084424239E0,1.139623523E-1,3.236486912E0,1.735234737E0,3.674081456E0
2.089139186E0,3.844224215E-1,3.256877899E0,1.809594989E0,3.745619878E0
2.093854134E0,5.136066675E-1,3.144051552E0,1.676967621E0,3.600148937E0
2.098569082E0,4.979688525E-1,2.793456078E0,1.270627737E0,3.108997376E0
2.103284030E0,2.861627936E-1,2.157483578E0,8.315585852E-1,2.329831370E0
2.107998926E0,2.316555381E-1,1.574904442E0,4.438381195E-1,1.652567870E0
2.112713926E0,4.806240797E-1,1.111788750E0,3.333723545E-1,1.256268624E0
2.117428822E0,6.441090107E-1,6.864757538E-1,7.192735672E-1,1.184685546E0
2.122143822E0,6.970403194E-1,2.703180313E-1,1.327414274E0,1.523471595E0
2.126858718E0,7.528566122E-1,-1.700277328E-1,1.846094489E0,2.000941621E0
2.131573666E0,7.678041458E-1,-5.389232635E-1,1.830871582E0,2.057195236E0
2.136288614E0,7.604801059E-1,-9.081296921E-1,1.678938985E0,2.054717899E0
2.141003561E0,9.450820088E-1,-1.181911469E0,1.838490725E0,2.381206179E0
2.145718509E0,1.100697041E0,-1.298259735E0,1.907072425E0,2.556156793E0
2.150433457E0,1.193135977E0,-1.367439270E0,1.507659793E0,2.359343482E0
2.155148353E0,1.231974125E0,-1.250960350E0,1.237735033E0,2.148173655E0
2.159863353E0,1.265969634E0,-1.020326614E0,1.109992981E0,1.968712760E0
2.164578301E0,1.182284117E0,-5.129623413E-1,1.008663893E0,1.636560095E0
2.169293249E0,1.464951992E0,2.608613968E-1,3.040978909E-1,1.518752295E0
2.174008197E0,1.727280736E0,1.008334160E0,-8.946354389E-1,2.191029230E0
2.178723145E0,1.870423555E0,1.322182655E0,-2.663719893E0,3.513126089E0
2.183438093E0,1.505231857E0,1.245025635E0,-4.391973019E0,4.806790902E0
2.188153041E0,9.015035629E-1,1.178187370E0,-5.366611481E0,5.567885859E0
2.192867989E0,3.646389842E-1,1.279576302E0,-5.127764702E0,5.297570003E0
2.197582936E0,4.025653601E-1,1.693286896E0,-3.710789204E0,4.098687094E0
2.202297884E0,1.029271126E0,2.186054230E0,-1.867554903E0,3.053848959E0
2.207012832E0,2.063599110E0,2.682393551E0,-6.058216095E-2,3.384870255E0
2.211727780E0,3.335788250E0,3.183005810E0,1.292950392E0,4.788604175E0
2.216442728E0,4.525369644E0,3.521206379E0,2.274348974E0,6.168511006E0
2.221157676E0,5.356712818E0,3.578434944E0,3.146469116E0,7.169367947E0
2.225872624E0,5.465874672E0,3.326720238E0,3.418431282E0,7.254552081E0
2.230587572E0,5.206564903E0,2.928389549E0,2.831400394E0,6.610643814E0
2.235302520E0,4.492784977E0,2.387588024E0,1.619607925E0,5.339365436E0
2.240017468E0,3.448257446E0,1.761243343E0,1.928076744E-1,3.876806976E0
2.244732416E0,2.538844824E0,1.173611641E0,-1.065592766E0,2.993089585E0
2.249447364E0,1.712162018E0,3.192210197E-1,-1.869670391E0,2.555204142E0
2.254162311E0,1.210428476E0,-5.287351608E-1,-2.207179070E0,2.572224215E0
2.258877259E0,9.305777550E-1,-1.422641754E0,-2.342710495E0,2.894508073E0
2.263592207E0,6.980338097E-1,-2.324290276E0,-2.315431118E0,3.354220885E0
2.268307155E0,3.249603510E-1,-3.080627441E0,-2.035772800E0,3.706782373E0
2.273022103E0,-9.422421455E-2,-3.600984573E0,-1.591004848E0,3.937926425E0
2.277737051E0,-5.506595373E-1,-3.914442062E0,-1.110687256E0,4.106057570E0
2.282451999E0,-8.188503981E-1,-3.911649227E0,-1.310762882E0,4.205902398E0
2.287166947E0,-9.982393384E-1,-3.607782841E0,-1.386754990E0,3.991950426E0
2.291881895E0,-1.264035106E0,-3.147024155E0,-1.481206894E0,3.700745822E0
2.296596843E0,-1.003969669E0,-2.544525623E0,-1.473702908E0,3.107147567E0
2.301311791E0,-6.208764911E-1,-1.839527130E0,-1.525943756E0,2.469382924E0
2.306026739E0,-4.501004219E-1,-9.084868431E-1,-1.350986004E0,1.689112760E0
2.310741686E0,-3.588466644E-1,-6.733465195E-2,-1.035408497E0,1.097896006E0
2.315456634E0,-5.487836599E-1,7.554922104E-1,-6.942253113E-1,1.163563822E0
2.320171582E0,-6.480023265E-1,1.593255043E0,-3.849549294E-1,1.762543317E0
2.324886530E0,-6.958680153E-1,2.326375008E0,-2.700886726E-1,2.443194806E0
2.329601478E0,-7.215235829E-1,2.878667831E0,-1.966605186E-1,2.974222608E0
2.334316426E0,-7.348838449E-1,3.050262451E0,6.874799728E-2,3.138292780E0
2.339031374E0,-5.400919914E-1,3.009583950E0,3.244342804E-1,3.074825607E0
2.343746322E0,-2.950302362E-1,2.891562462E0,6.888017654E-1,2.987076193E0
2.348461270E0,2.146507502E-1,2.410055161E0,1.127779484E0,2.669518193E0
2.353176218E0,9.304900169E-1,1.866955280E0,1.588246346E0,2.621804749E0
2.357891166E0,1.636308908E0,1.458668709E0,2.184102297E0,3.094434373E0
2.362606114E0,2.198406219E0,1.305114746E0,2.785274029E0,3.780749373E0
2.367321061E0,2.593774796E0,1.525812149E0,3.267094851E0,4.441810348E0
2.372035957E0,3.047767639E0,1.350016117E0,3.019916534E0,4.497924741E0
2.376750905E0,3.545813560E0,7.520737648E-1,1.346011162E0,3.866543004E0
2.381465905E0,3.434284210E0,4.010171890E-1,6.654944420E-1,3.521080186E0
2.386180853E0,3.069168329E0,1.864423752E-1,8.825397491E-2,3.076092287E0
2.390895801E0,2.700689316E0,1.556520462E-1,-5.049562454E-1,2.751895919E0
2.395610749E0,2.400922775E0,3.181352615E-1,-5.270047188E-1,2.478583102E0
2.400325697E0,2.226988792E0,4.874844551E-1,-3.471746445E-1,2.306003124E0
2.405040645E0,1.972707868E0,5.919780731E-1,-1.570758820E-1,2.065596089E0
2.409755593E0,1.217478514E0,3.649878502E-1,5.199909210E-1,1.373266405E0
2.414470541E0,5.932331085E-1,-6.296873093E-2,8.177585602E-1,1.012234975E0
2.419185436E0,1.235896349E-1,-4.899520874E-1,1.108644009E0,1.218367343E0
2.423900436E0,-1.486848593E-1,-1.029968739E0,1.416046619E0,1.757307832E0
2.428615332E0,-2.001425028E-1,-1.558629513E0,1.568088531E0,2.219974014E0
2.433330280E0,-8.516669273E-3,-1.928526402E0,1.565463543E0,2.483940965E0
2.438045228E0,1.952842474E-1,-2.140275002E0,1.599581242E0,2.679099320E0
2.442760228E0,3.678911924E-1,-2.174909115E0,1.598528862E0,2.724127036E0
2.447475176E0,4.859377146E-1,-2.008798599E0,1.548099041E0,2.582250552E0
2.452190124E0,5.693503618E-1,-1.594381809E0,1.243031025E0,2.100318861E0
2.456905072E0,8.346986771E-2,-1.500537395E0,1.046905994E0,1.831554491E0
2.461620020E0,-1.432198286E-1,-1.335780621E0,2.105116844E-1,1.359829752E0
2.466334968E0,-2.105458975E-1,-1.086846352E0,-6.573939323E-1,1.287529164E0
2.471049916E0,-1.044404507E-1,-7.443189621E-1,-9.358735085E-1,1.200324018E0
2.475764864E0,-1.118299961E-1,-5.276012421E-1,-7.315602303E-1,9.088725924E-1
2.480479811E0,-2.722322941E-2,-3.927145004E-1,-2.370228767E-1,4.595058511E-1
2.485194707E0,2.021517754E-1,-3.005909920E-1,4.130582809E-1,5.493973318E-1
2.489909707E0,1.933479309E-1,-3.174662590E-1,1.289580822E0,1.342083062E0
2.494624655E0,4.716742039E-1,-5.052556992E-1,1.723368168E0,1.856813862E0
2.499339551E0,6.683223248E-1,-6.586894989E-1,1.744182110E0,1.980580172E0
2.504054551E0,7.967667580E-1,-6.592493057E-1,1.305401325E0,1.665388703E0
2.508769499E0,1.267055273E0,-6.560549736E-1,9.479398727E-1,1.713016986E0
2.513484447E0,1.786442280E0,-6.065979004E-1,7.290725708E-1,2.022593347E0
2.518199395E0,2.039465427E0,-7.021613121E-1,6.628689766E-1,2.256511692E0
2.522914291E0,2.309074402E0,-7.940802574E-1,6.104121208E-1,2.516940803E0
2.527629291E0,2.156613827E0,-8.154001236E-1,3.950333595E-1,2.339211815E0
2.532344239E0,2.008831263E0,-7.281823158E-1,1.462435722E-1,2.141737544E0
2.537059186E0,1.856147289E0,-6.046977043E-1,-1.150894165E-2,1.952197359E0
2.541774134E0,1.216335177E0,-4.928302765E-1,-2.646675110E-1,1.338806124E0
2.546489082E0,7.398636341E-1,-2.733159065E-1,-5.509366989E-1,9.620972030E-1
2.551204030E0,2.591565847E-1,-2.517046928E-1,-5.266084671E-1,6.386187168E-1
2.555918978E0,-1.209349632E-1,-3.264446259E-1,-1.784782410E-1,3.912107381E-1
2.560633926E0,-3.628821373E-1,-1.428246498E-1,3.775663376E-1,5.428062872E-1
2.565348874E0,-7.443635464E-1,7.994627953E-2,8.683152199E-1,1.146490217E0
2.570063822E0,-7.347381115E-1,2.204823494E-2,1.016790390E0,1.254666854E0
2.574778770E0,-9.556889534E-1,-5.359935760E-2,6.470975876E-1,1.155400171E0
2.579493718E0,-8.762325048E-1,-2.838468552E-2,6.641292572E-2,8.792040546E-1
2.584208666E0,-5.821775198E-1,5.880570412E-2,-3.996438980E-1,7.085929866E-1
2.588923614E0,3.209304810E-2,-6.472897530E-2,-6.983757019E-1,7.021028593E-1
2.593638561E0,4.604363441E-1,-2.508797646E-1,-1.097248077E0,1.216098527E0
2.598353509E0,7.031669617E-1,-3.228325844E-1,-1.371560097E0,1.574751330E0
2.603068457E0,8.654503822E-1,-2.948224545E-1,-1.387981415E0,1.662052060E0
2.607783353E0,1.215506077E0,-9.064722061E-2,-1.543301582E0,1.966583768E0
2.612498353E0,1.490360260E0,-7.476568222E-3,-1.946871758E0,2.451844050E0
2.617213301E0,1.985774755E0,-1.128113270E-1,-2.426148415E0,3.137231886E0
2.621928249E0,2.088013172E0,-2.341272831E-1,-2.303283691E0,3.117648209E0
2.626643197E0,1.667603254E0,-5.565202236E-1,-1.666112900E0,2.422095698E0
2.631358145E0,1.079544544E0,-1.145185471E0,-1.184628487E0,1.969825078E0
2.636073093E0,6.264975071E-1,-1.478271723E0,-1.479353905E0,2.183179880E0
2.640788041E0,1.364207268E-1,-1.441195965E0,-1.746362686E0,2.268356025E0
2.645502989E0,-1.329641342E-1,-1.339619398E0,-1.785292625E0,2.235962735E0
2.650217936E0,-1.254990101E-1,-1.010699511E0,-1.486956596E0,1.802305030E0
2.654932884E0,-1.322157383E-1,-8.700542450E-1,-1.525302887E0,1.760972540E0
2.659647832E0,-4.762434959E-2,-9.459342957E-1,-1.503053665E0,1.776578197E0
2.664362780E0,1.228146553E-1,-7.989728451E-1,-1.692522049E0,1.875652402E0
2.669077728E0,1.156313419E-1,-6.499359608E-1,-1.892628670E0,2.004452704E0
2.673792676E0,1.173577309E-1,-5.710828304E-1,-2.079299927E0,2.159489898E0
2.678507624E0,1.949954033E-1,-6.154189110E-1,-2.276234627E0,2.366010930E0
2.683222572E0,2.385661602E-1,-6.016228199E-1,-2.292198181E0,2.381813664E0
2.687937520E0,4.488420486E-1,-4.438620806E-1,-2.265999794E0,2.352281403E0
2.692652468E0,5.577189922E-1,-3.429130316E-1,-2.135704994E0,2.233802955E0
2.697367416E0,7.849450111E-1,-2.652162313E-1,-2.020972252E0,2.184217746E0
2.702082364E0,8.147430420E-1,4.240953922E-2,-1.993494034E0,2.153978472E0
2.706797364E0,8.053610325E-1,3.506280184E-1,-1.967111588E0,2.154315297E0
2.711512311E0,7.194325924E-1,5.884488821E-1,-1.951241493E0,2.161295608E0
2.716227259E0,7.395169735E-1,6.652935147E-1,-2.170104027E0,2.387226906E0
2.720942207E0,7.268168926E-1,8.055904508E-1,-2.327011108E0,2.567531785E0
2.725657155E0,8.147361279E-1,9.327151775E-1,-2.274057388E0,2.589418770E0
2.730372103E0,7.879955769E-1,9.753469229E-1,-1.944780350E0,2.313959649E0
2.735087051E0,7.090151310E-1,1.148591757E0,-1.683548927E0,2.157846721E0
2.739801999E0,6.357440948E-1,1.322941899E0,-1.552111626E0,2.136210739E0
2.744516947E0,5.399961472E-1,1.340981245E0,-1.292100906E0,1.938904663E0
2.749231895E0,5.510036945E-1,1.284397602E0,-9.944295883E-1,1.715276210E0
2.753946843E0,5.777766705E-1,1.200950742E0,-7.928829193E-1,1.550732694E0
2.758661791E0,8.828184605E-1,1.104546070E0,-8.735980988E-1,1.662096295E0
2.763376739E0,1.226502419E0,9.996407032E-1,-1.178793907E0,1.973105368E0
2.768091686E0,1.465312719E0,8.856065273E-1,-1.526503563E0,2.293829421E0
2.772806634E0,1.666198969E0,7.003136873E-1,-1.658697128E0,2.453147861E0
2.777521582E0,1.805082560E0,5.492462516E-1,-1.599729538E0,2.473687346E0
2.782236530E0,1.791301250E0,4.611847103E-1,-1.521921158E0,2.395348726E0
2.786951478E0,1.768558502E0,4.601722956E-1,-1.487378120E0,2.356236701E0
2.791666426E0,1.722427130E0,4.793685079E-1,-1.338401794E0,2.233353699E0
2.796381374E0,1.581401825E0,5.618638992E-1,-1.385679245E0,2.176379963E0
2.801096322E0,1.254407883E0,8.030565977E-1,-1.385359764E0,2.034124065E0
2.805811270E0,9.854094982E-1,1.073117495E0,-1.643239975E0,2.196098962E0
2.810526218E0,7.076282501E-1,1.189411402E0,-1.967640877E0,2.405628368E0
2.815241166E0,5.937397480E-1,1.084371805E0,-2.286506653E0,2.599327177E0
2.819956166E0,5.396447182E-1,7.960439920E-1,-2.685379028E0,2.852396008E0
2.824671114E0,4.601404667E-1,4.013159871E-1,-2.924949646E0,2.987995014E0
2.829386061E0,4.697902203E-1,2.210950106E-1,-2.996019363E0,3.040677208E0
2.834101009E0,5.435914993E-1,2.847281396E-1,-2.990037918E0,3.052357873E0
2.838815957E0,6.322085857E-1,4.489578605E-1,-2.826441765E0,2.930874256E0
2.843530905E0,8.216571808E-1,6.847947836E-1,-2.787355423E0,2.985534236E0
2.848245853E0,9.361300468E-1,8.723939061E-1,-2.704939842E0,2.992341916E0
2.852960801E0,9.047143459E-1,9.257194400E-1,-2.540824890E0,2.851535666E0
2.857675749E0,8.662052155E-1,8.254334927E-1,-2.371590614E0,2.656330922E0
2.862390697E0,8.869812489E-1,6.620633602E-1,-1.987219810E0,2.274666174E0
2.867105645E0,9.362342358E-1,5.172132850E-1,-1.245471954E0,1.641719987E0
2.871820593E0,1.017065287E0,4.776452780E-1,-3.672866821E-1,1.182144795E0
2.876535489E0,1.181709528E0,5.916126966E-1,1.023693085E-1,1.325489520E0
2.881250489E0,1.258196115E0,5.717650056E-1,1.690025330E-1,1.392312660E0
2.885965436E0,1.242847681E0,5.181958675E-1,-9.473323822E-2,1.349878403E0
2.890680384E0,1.011491060E0,4.837792814E-1,-1.771020889E-1,1.135130701E0
2.895395332E0,7.609870434E-1,5.261600614E-1,-3.600635529E-1,9.927695868E-1
2.900110280E0,5.591285229E-1,6.553729773E-1,-7.100114822E-1,1.116357805E0
2.904825280E0,4.114792347E-1,8.380839825E-1,-9.587841034E-1,1.338270107E0
2.909540228E0,4.191026688E-1,1.036025047E0,-1.225689888E0,1.658707523E0
2.914255176E0,3.983373642E-1,1.210984945E0,-9.523200989E-1,1.591248178E0
2.918970124E0,3.584895134E-1,1.458271503E0,-8.133373260E-1,1.707802130E0
2.923685072E0,5.000936985E-1,1.624701500E0,-5.744638443E-1,1.794368240E0
2.928400020E0,6.030514240E-1,1.863493919E0,-3.361797333E-1,1.987283931E0
2.933114968E0,6.584935188E-1,2.060437441E0,-2.176589966E-1,2.174026587E0
2.937829916E0,6.047437191E-1,2.106193304E0,-1.516342163E-1,2.196533208E0
2.942544864E0,5.948667526E-1,1.991410851E0,-2.431163788E-1,2.092531770E0
2.947259811E0,6.192996502E-1,1.711003661E0,-2.864027023E-1,1.842034770E0
2.951974759E0,6.297810078E-1,1.455881715E0,-2.435226440E-1,1.604842348E0
2.956689707E0,6.974766254E-1,1.307263255E0,-1.195592880E-1,1.486507748E0
2.961404655E0,7.655227184E-1,1.164761543E0,-1.819915771E-1,1.405637015E0
2.966119655E0,8.780770302E-1,1.081043363E0,-3.345365524E-1,1.432336807E0
2.970834603E0,1.050222635E0,1.060767889E0,-4.095363617E-1,1.547874714E0
2.975549551E0,1.109969139E0,9.893316627E-1,-3.544912338E-1,1.528552473E0
2.980264499E0,1.076446295E0,1.081739664E0,-3.464593887E-1,1.564906206E0
2.984979447E0,1.158906221E0,1.055753589E0,-3.284235001E-1,1.601730709E0
2.989694343E0,1.213312387E0,1.020949125E0,-4.296388626E-1,1.642879672E0
2.994409343E0,1.220557690E0,9.820812941E-1,-4.492521286E-1,1.629746059E0
2.999124291E0,1.161067724E0,9.630837440E-1,-3.971195221E-1,1.559907841E0
3.003839239E0,1.000704527E0,1.016502619E0,-3.835105896E-1,1.477080735E0
3.008554186E0,8.203535080E-1,1.099186063E0,-3.846349716E-1,1.424476725E0
3.013269134E0,6.582214832E-1,1.091618299E0,-3.813648224E-1,1.330535667E0
3.017984082E0,5.048379898E-1,1.089626789E0,-3.115253448E-1,1.240643372E0
3.022699030E0,2.837293148E-1,9.497702122E-1,-2.277860641E-1,1.017080268E0
3.027413978E0,3.804612160E-2,8.109529018E-1,-1.874656677E-1,8.332079530E-1
3.032128978E0,-2.180657387E-1,7.165257931E-1,-6.627750397E-2,7.519006491E-1
3.036843926E0,-5.944926739E-1,5.612602234E-1,2.097988129E-2,8.178476222E-1
3.041558874E0,-9.423785210E-1,4.120537043E-1,2.197265625E-2,1.028760579E0
3.046273822E0,-1.247594953E0,3.355915546E-1,1.799297333E-2,1.292067570E0
3.050988770E0,-1.505947232E0,3.269063234E-1,-3.890609741E-2,1.541511756E0
3.055703718E0,-1.722359896E0,3.426042795E-1,-4.357528687E-2,1.756644559E0
3.060418666E0,-1.911103368E0,3.203155994E-1,-1.346521378E-1,1.942433876E0
3.065133614E0,-1.971392870E0,3.987915516E-1,-1.923723221E-1,2.020502823E0
3.069848561E0,-1.969905615E0,4.872456789E-1,-1.592874527E-1,2.035511969E0
3.074563509E0,-1.906408548E0,5.812186003E-1,-4.016304016E-2,1.993444678E0
3.079278457E0,-1.804745436E0,6.428643465E-1,5.029964447E-2,1.916483945E0
3.083993405E0,-1.521621943E0,7.106051445E-1,1.886253357E-1,1.689932698E0
3.088708405E0,-1.229706407E0,7.414858341E-1,3.220748901E-1,1.471635595E0
3.093423353E0,-9.681427479E-1,7.737613916E-1,4.647092819E-1,1.323616934E0
3.098138301E0,-5.744376183E-1,7.977575064E-1,4.635877609E-1,1.086880503E0
3.102853249E0,-3.355951309E-1,8.418978453E-1,4.383182526E-1,1.006746723E0
3.107568197E0,-2.858662605E-1,8.105642796E-1,5.940809250E-1,1.044828271E0
3.112283145E0,-9.906816483E-2,7.464812994E-1,4.721136093E-1,8.887857401E-1
3.116998093E0,-3.772473335E-2,7.548907995E-1,4.743881226E-1,8.923717642E-1
3.121713041E0,-8.777046204E-2,6.448949575E-1,7.344198227E-1,9.813081250E-1
3.126427989E0,-1.911616325E-2,5.936319828E-1,7.693939209E-1,9.719729236E-1
3.131142936E0,-6.072449684E-2,4.958899021E-1,8.474273682E-1,9.837313677E-1
3.135857884E0,-1.209077835E-1,4.233795404E-1,8.348827362E-1,9.438739908E-1
3.140572884E0,-1.808452606E-1,4.763221741E-1,9.229173660E-1,1.054212638E0
3.145287832E0,-3.363449574E-1,3.919394016E-1,1.044440269E0,1.165160891E0
3.150002780E0,-4.575378895E-1,3.427913189E-1,1.094548225E0,1.234861379E0
3.154717728E0,-3.622171879E-1,3.668627739E-1,9.827432632E-1,1.109762996E0
3.159432676E0,-2.955975533E-1,4.826554060E-1,1.210549831E0,1.336325203E0
3.164147624E0,-2.578630447E-1,5.896710157E-1,1.213520050E0,1.373621552E0
3.168862572E0,-1.387293339E-1,6.114332676E-1,1.039872169E0,1.214261338E0
3.173577520E0,6.723713875E-2,6.340498924E-1,7.713460922E-1,1.000757160E0
3.178292468E0,3.322896957E-1,7.097520828E-1,3.462486267E-1,8.567686808E-1
3.183007416E0,5.847549438E-1,7.952083349E-1,6.585311890E-2,9.892579409E-1
3.187722416E0,7.714602947E-1,8.282651901E-1,-2.725505829E-2,1.132217757E0
3.192437364E0,1.050030470E0,9.186978340E-1,-1.341400146E-1,1.401628782E0
3.197152311E0,1.224242210E0,1.042740941E0,-1.066703796E-1,1.611662567E0
3.201867259E0,1.408519506E0,1.114404678E0,-5.507946014E-2,1.796902539E0
3.206582207E0,1.323882818E0,1.200479507E0,3.114862442E-1,1.814067376E0
3.211297155E0,1.266723394E0,1.262525439E0,4.620218277E-1,1.847166157E0
3.216012103E0,1.146769762E0,1.333995461E0,4.925975800E-1,1.826821599E0
3.220726999E0,9.833972454E-1,1.362500072E0,5.659418106E-1,1.773067038E0
3.225441999E0,7.576501369E-1,1.367354035E0,6.485891342E-1,1.692441625E0
3.230156999E0,6.898663044E-1,1.410972118E0,6.737947464E-1,1.709022293E0
3.234871947E0,5.164067745E-1,1.316885352E0,7.609720230E-1,1.606219601E0
3.239586895E0,4.575984478E-1,1.152440429E0,7.668075562E-1,1.457912586E0
3.244301843E0,3.702948093E-1,9.848170280E-1,7.058944702E-1,1.266992434E0
3.249016791E0,1.833295822E-1,7.998404503E-1,6.071624756E-1,1.020784381E0
3.253731739E0,-9.870219231E-2,5.068269968E-1,5.613565445E-1,7.627167872E-1
3.258446686E0,-3.808383942E-1,2.301603556E-1,5.776977539E-1,7.292094120E-1
3.263161634E0,-5.631403923E-1,-3.513675928E-2,5.077896118E-1,7.590862818E-1
3.267876582E0,-6.886513233E-1,-2.319110036E-1,3.135328293E-1,7.914077291E-1
3.272591582E0,-7.474718094E-1,-3.749292493E-1,1.146602631E-1,8.440574766E-1
3.277306530E0,-7.248306274E-1,-4.456973076E-1,-1.890687943E-1,8.716493202E-1
3.282021478E0,-6.398010254E-1,-4.160308242E-1,-4.445734024E-1,8.832171358E-1
3.286736426E0,-4.639506340E-1,-2.912544608E-1,-6.567926407E-1,8.552519656E-1
3.291451374E0,-2.312238216E-1,-1.435881257E-1,-8.546123505E-1,8.969081754E-1
3.296166322E0,5.514860153E-3,-2.127379179E-2,-1.009477615E0,1.009716814E0
3.300881270E0,1.888899803E-1,1.839399338E-2,-1.121448517E0,1.137393749E0
3.305596218E0,3.571391106E-1,3.287667036E-2,-1.190600395E0,1.243446228E0
3.310311218E0,5.056912899E-1,-3.972476721E-2,-1.259917259E0,1.358194845E0
3.315026166E0,5.918104649E-1,-1.419262886E-1,-1.295859337E0,1.431654329E0
3.319741114E0,7.352554798E-1,-2.257939875E-1,-1.341404915E0,1.546269928E0
3.324456061E0,8.501300812E-1,-2.672676146E-1,-1.372560501E0,1.636482649E0
3.329171009E0,9.317994118E-1,-3.382316530E-1,-1.394095421E0,1.710600139E0
3.333885957E0,1.075949430E0,-3.526595235E-1,-1.415557861E0,1.812688604E0
3.338600905E0,1.177037001E0,-3.727927506E-1,-1.384482384E0,1.855042319E0
3.343315853E0,1.273256063E0,-4.131534100E-1,-1.353548050E0,1.903672521E0
3.348030801E0,1.335677385E0,-4.690405130E-1,-1.318064690E0,1.934251175E0
3.352745801E0,1.354627609E0,-4.974052608E-1,-1.268525124E0,1.921349511E0
3.357460749E0,1.392455816E0,-5.175257325E-1,-1.219234467E0,1.921795715E0
3.362175697E0,1.444468021E0,-5.343331695E-1,-1.189276695E0,1.945861983E0
3.366890645E0,1.481977701E0,-5.143089294E-1,-1.164275169E0,1.953537369E0
3.371605593E0,1.481316090E0,-4.624251127E-1,-1.086811066E0,1.894542856E0
3.376320541E0,1.500150919E0,-4.215430319E-1,-1.028535843E0,1.867093272E0
3.381035489E0,1.500173569E0,-3.389377892E-1,-9.368619919E-1,1.800863669E0
3.385750489E0,1.505455256E0,-2.908848822E-1,-8.691158295E-1,1.762490246E0
3.390465436E0,1.544771910E0,-2.438483238E-1,-7.869901657E-1,1.750752918E0
3.395180384E0,1.584571838E0,-2.837079465E-1,-6.761760712E-1,1.746016091E0
3.399895332E0,1.567676783E0,-2.955062389E-1,-6.083316803E-1,1.707337654E0
3.404610280E0,1.556294680E0,-2.410154939E-1,-5.547208786E-1,1.669687651E0
3.409325228E0,1.483673096E0,-2.205464542E-1,-4.340190887E-1,1.561505416E0
3.414040176E0,1.416908264E0,-2.052728832E-1,-3.084020615E-1,1.464540138E0
3.418755124E0,1.288988113E0,-1.377336979E-1,-1.922426224E-1,1.310503016E0
3.423470124E0,1.186171532E0,-8.471402526E-2,-7.590675354E-2,1.191612858E0
3.428185072E0,1.103596449E0,-2.221038938E-2,2.359390259E-3,1.103822445E0
3.432900020E0,9.981667995E-1,4.054135084E-2,1.238527298E-1,1.006637998E0
3.437614968E0,9.270536900E-1,6.040614843E-2,2.119703293E-1,9.528949928E-1
3.442329916E0,8.470370770E-1,9.491568804E-2,2.428140640E-1,8.862502284E-1
3.447044864E0,7.675778866E-1,1.443331242E-1,2.690134048E-1,8.260605757E-1
3.451759811E0,6.742885113E-1,1.893990636E-1,2.809896469E-1,7.546470588E-1
3.456474811E0,5.813038349E-1,1.825935543E-1,3.408308029E-1,6.981548473E-1
3.461189759E0,5.076878071E-1,2.720879316E-1,3.098592758E-1,6.540577366E-1
3.465904707E0,5.061390400E-1,3.190684915E-1,2.408113480E-1,6.449585532E-1
3.470619655E0,4.952149391E-1,3.138950467E-1,1.336965561E-1,6.013673631E-1
3.475334603E0,4.747691154E-1,2.659852803E-1,6.975078583E-2,5.486520340E-1
3.480049551E0,4.209764004E-1,1.942674518E-1,5.906105042E-3,4.636764546E-1
3.484764499E0,4.006390572E-1,6.994214654E-2,-3.877735138E-2,4.085428264E-1
3.489479447E0,3.467011452E-1,-1.152902842E-2,-8.348655701E-2,3.567977127E-1
3.494194447E0,2.782657146E-1,-8.845570683E-2,-7.088565826E-2,3.004679626E-1
3.498909395E0,2.143158913E-1,-1.561684012E-1,-8.235454559E-2,2.776727246E-1
3.503624343E0,9.716963768E-2,-1.955281198E-1,-7.494640350E-2,2.308465887E-1
3.508339291E0,-1.102685928E-2,-1.921816170E-1,-5.347728729E-2,1.997878520E-1
3.513054239E0,-1.343426704E-1,-1.846857369E-1,-1.802921295E-2,2.290891247E-1
3.517769186E0,-2.199761868E-1,-1.920926571E-1,-1.156139374E-2,2.922717528E-1
3.522484134E0,-3.636200428E-1,-1.188872755E-1,1.373863220E-2,3.828086595E-1
3.527199134E0,-4.599542618E-1,-8.193314075E-3,1.964092255E-2,4.604463260E-1
3.531914082E0,-5.425539017E-1,2.546706796E-2,1.572704315E-2,5.433789172E-1
3.536629030E0,-5.921623707E-1,4.906958342E-2,1.161575317E-2,5.943054963E-1
3.541343978E0,-6.039431095E-1,4.359707236E-2,2.564430237E-3,6.055200744E-1
3.546058926E0,-5.921773911E-1,3.298446536E-2,7.732391357E-3,5.931457050E-1
3.550773874E0,-5.999612808E-1,2.688679099E-2,-3.026485443E-2,6.013255353E-1
3.555488874E0,-5.842008591E-1,2.540448308E-2,-4.921627045E-2,5.868204775E-1
3.560203822E0,-5.829992294E-1,1.412340999E-2,-1.207885742E-1,5.955480265E-1
3.564918770E0,-5.865092278E-1,2.651810646E-3,-1.253452301E-1,5.997595627E-1
3.569633718E0,-5.997173786E-1,1.493990421E-2,-1.442871094E-1,6.170112680E-1
3.574348666E0,-5.748729706E-1,3.668820858E-2,-1.345939636E-1,5.915576827E-1
3.579063614E0,-5.981097221E-1,4.894331098E-2,-1.010923386E-1,6.085641694E-1
3.583778561E0,-6.215741634E-1,3.744950891E-2,-4.858970642E-2,6.245941610E-1
3.588493509E0,-5.925893784E-1,3.098380566E-2,-8.699989319E-2,5.997425689E-1
3.593208509E0,-6.019809246E-1,2.010390162E-2,-3.934574127E-2,6.036002715E-1
3.597923457E0,-5.733408928E-1,2.391281724E-2,-1.092243195E-2,5.739432914E-1
3.602638405E0,-5.499978065E-1,3.292217851E-2,2.211570740E-2,5.514259348E-1
3.607353353E0,-4.936032295E-1,6.624230742E-2,3.111743927E-2,4.989994855E-1
3.612068301E0,-4.569280148E-1,5.678978562E-2,4.473781586E-2,4.626118920E-1
3.616783301E0,-4.158334732E-1,7.156798244E-2,-8.653640747E-3,4.220359452E-1
3.621498249E0,-3.607132435E-1,4.825288057E-2,-3.337097168E-2,3.654531519E-1
3.626213197E0,-3.346538544E-1,4.440632463E-2,-7.247734070E-2,3.452797255E-1
3.630928145E0,-3.327291012E-1,7.199198008E-3,-1.402702332E-1,3.611595514E-1
3.635643093E0,-2.735505104E-1,-5.859953165E-2,-2.127847672E-1,3.514842016E-1
3.640358041E0,-3.005816936E-1,-6.699648499E-2,-2.278881073E-1,3.831068689E-1
3.645072989E0,-2.941787243E-1,-1.040460169E-1,-2.334308624E-1,3.896879046E-1
3.649787989E0,-2.781248093E-1,-1.315652132E-1,-2.867355347E-1,4.205711375E-1
3.654502936E0,-2.475497723E-1,-1.112072170E-1,-3.351268768E-1,4.312284295E-1
3.659217884E0,-2.313673496E-1,-1.243576109E-1,-3.117723465E-1,4.076734746E-1
3.663932832E0,-2.151718140E-1,-9.446772933E-2,-3.027763367E-1,3.832708852E-1
3.668647780E0,-1.511123180E-1,-4.062086344E-2,-3.367748260E-1,3.713519499E-1
3.673362780E0,-1.350002289E-1,-3.475287557E-2,-3.373022079E-1,3.649734287E-1
3.678077728E0,-6.645679474E-2,9.335547686E-3,-3.139724731E-1,3.210644358E-1
3.682792676E0,-2.680087090E-2,3.429472446E-2,-3.098278046E-1,3.128700741E-1
3.687507624E0,3.190135956E-2,5.446830392E-2,-3.009185791E-1,3.074678587E-1
3.692222520E0,4.760122299E-2,8.418461680E-2,-3.015527725E-1,3.166812289E-1
3.696937520E0,6.814813614E-2,1.090933084E-1,-3.212785721E-1,3.460714367E-1
3.701652468E0,1.030399799E-1,1.100994945E-1,-3.122901917E-1,3.467914358E-1
3.706367468E0,1.476972103E-1,1.254366040E-1,-2.984580994E-1,3.558455348E-1
3.711082416E0,1.830399036E-1,1.168672740E-1,-3.132257462E-1,3.811455550E-1
3.715797364E0,2.328686714E-1,1.274553835E-1,-3.183555603E-1,4.145153263E-1
3.720512311E0,2.541038990E-1,6.615427136E-2,-2.995424271E-1,3.983350910E-1
3.725227259E0,2.946863174E-1,8.125850558E-2,-3.236970901E-1,4.452221654E-1
3.729942207E0,2.970750332E-1,3.880679607E-2,-3.286819458E-1,4.447374105E-1
3.734657207E0,3.043370247E-1,5.850452185E-2,-2.810583115E-1,4.183749253E-1
3.739372155E0,2.973449230E-1,4.947799444E-2,-2.191267014E-1,3.726641738E-1
3.744087103E0,3.142530918E-1,6.903150678E-2,-2.002992630E-1,3.789988778E-1
3.748802051E0,2.928395271E-1,9.346103668E-2,-1.528310776E-1,3.432889341E-1
3.753516999E0,2.713906765E-1,1.178746521E-1,-1.150035858E-1,3.174478818E-1
3.758231947E0,2.642495632E-1,1.135602593E-1,-1.393795013E-1,3.196097770E-1
3.762946947E0,2.570595741E-1,1.283506453E-1,-1.302881241E-1,3.154813910E-1
3.767661895E0,2.546005249E-1,9.535977244E-2,-1.260042191E-1,2.996530939E-1
3.772376843E0,2.282416821E-1,4.815831780E-2,-1.456241608E-1,2.749907002E-1
3.777091791E0,2.018573284E-1,2.489474416E-2,-1.365613937E-1,2.449798840E-1
3.781806739E0,1.754987240E-1,2.083000541E-2,-1.514091492E-1,2.327196204E-1
3.786521739E0,1.874029636E-1,-4.531413317E-2,-1.471195221E-1,2.425229788E-1
3.791236686E0,1.514906883E-1,-8.266365528E-2,-1.619548798E-1,2.366687382E-1
3.795951634E0,1.346328259E-1,-1.295621097E-1,-1.720294952E-1,2.539812696E-1
3.800666582E0,1.082878113E-1,-1.429805458E-1,-1.868572235E-1,2.590083175E-1
3.805381530E0,1.250960827E-1,-1.325201988E-1,-2.159748077E-1,2.825875981E-1
3.810096530E0,1.038541794E-1,-9.341385961E-2,-1.971912384E-1,2.416531073E-1
3.814811478E0,5.900335312E-2,-6.389865279E-2,-1.831274033E-1,2.027315450E-1
3.819526426E0,4.774546623E-2,-2.470326424E-2,-1.582536697E-1,1.671349897E-1
3.824241374E0,5.587410927E-2,1.885706186E-2,-1.429824829E-1,1.546657534E-1
3.828956322E0,4.041457176E-2,7.151034474E-2,-1.420097351E-1,1.640543565E-1
3.833671322E0,5.376243591E-2,7.152023911E-2,-1.409788132E-1,1.669747582E-1
3.838386270E0,9.093642235E-2,7.144168019E-2,-1.304006577E-1,1.742919335E-1
3.843101218E0,1.041722298E-1,5.705529451E-2,-1.436100006E-1,1.863625294E-1
3.847816166E0,9.841609001E-2,6.175345182E-2,-1.376943588E-1,1.801636812E-1
3.852531114E0,1.259758472E-1,5.700823665E-2,-1.080808640E-1,1.755030663E-1
3.857246061E0,1.153900623E-1,6.655710936E-2,-8.818626404E-2,1.597546007E-1
3.861961061E0,1.238181591E-1,7.606089115E-2,-9.695053101E-2,1.746871522E-1
3.866676009E0,1.084947586E-1,8.082708716E-2,-1.246051788E-1,1.839309144E-1
3.871390957E0,1.409132481E-1,1.046067774E-1,-1.282463074E-1,2.173619947E-1
3.876105905E0,1.210668087E-1,9.029239416E-2,-1.460218430E-1,2.100768127E-1
3.880820853E0,1.347093582E-1,8.565902710E-2,-1.541223526E-1,2.218958758E-1
3.885535801E0,1.483418941E-1,6.215149164E-2,-1.478805542E-1,2.184874911E-1
3.890250801E0,1.334867477E-1,6.265619397E-2,-1.369085312E-1,2.012174356E-1
3.894965749E0,1.425349712E-1,5.368256569E-2,-1.449928284E-1,2.102877937E-1
3.899680697E0,1.230289936E-1,7.329300046E-2,-1.340274811E-1,1.961411810E-1
3.904395645E0,1.368455887E-1,6.431734562E-2,-1.326618195E-1,2.011531616E-1
3.909110593E0,1.316626072E-1,9.348747134E-2,-1.360149384E-1,2.111279538E-1
3.913825593E0,1.361615658E-1,1.083694994E-1,-1.630144119E-1,2.384483569E-1
3.918540541E0,1.503188610E-1,7.108196616E-2,-1.992063522E-1,2.594832878E-1
3.923255489E0,1.929323673E-1,2.935850620E-2,-2.445554733E-1,3.128772919E-1
3.927970436E0,1.879403591E-1,1.643925905E-2,-2.704782486E-1,3.297731202E-1
3.932685384E0,2.021832466E-1,-3.453269601E-2,-2.866325378E-1,3.524610391E-1
3.937400384E0,1.689591408E-1,-3.785121441E-2,-2.836446762E-1,3.323164276E-1
3.942115332E0,1.551547050E-1,-5.569723248E-2,-2.616615295E-1,3.092602791E-1
3.946830280E0,1.318707466E-1,-4.514932632E-2,-2.019405365E-1,2.453738694E-1
3.951545228E0,1.608283520E-1,-7.768371701E-2,-1.759996414E-1,2.507516550E-1
3.956260176E0,1.514749527E-1,-9.114038944E-2,-1.265888214E-1,2.174303603E-1
3.960975176E0,1.419947147E-1,-5.718517303E-2,-8.715438843E-2,1.761491710E-1
3.965690124E0,1.230010986E-1,-6.156674027E-2,-1.486492157E-2,1.383499175E-1
3.970405072E0,1.229436398E-1,-4.228776693E-2,1.403808594E-2,1.307687334E-1
3.975120020E0,8.465743065E-2,-1.369518042E-2,2.837657928E-2,9.033088499E-2
3.979835020E0,9.399318695E-2,-9.051114321E-3,5.203914642E-2,1.078179699E-1
3.984549968E0,9.371161461E-2,1.460888982E-2,4.227066040E-2,1.038368678E-1
3.989264916E0,6.959962845E-2,1.945495605E-4,2.306270599E-2,7.332144664E-2
3.993979864E0,5.993056297E-2,-1.397499442E-2,1.351261139E-2,6.300447217E-2
3.998694811E0,5.988907814E-2,-4.314899445E-3,-1.017665863E-2,6.090061099E-2
4.003409811E0,5.041193962E-2,-3.261256218E-2,-3.364849091E-2,6.882705724E-2
4.008124759E0,4.597401619E-2,9.502172470E-4,-7.583999634E-2,8.869170267E-2
4.012839707E0,1.800107956E-2,2.011930943E-2,-1.081314087E-1,1.114505586E-1
4.017554655E0,4.742312431E-2,1.065403223E-2,-1.448316574E-1,1.527699909E-1
4.022269603E0,4.348373413E-2,6.083697081E-3,-1.764431000E-1,1.818241294E-1
4.026984603E0,7.290148735E-2,1.100704074E-2,-2.077589035E-1,2.204530421E-1
4.031699551E0,8.799433708E-2,2.534493804E-2,-2.197809219E-1,2.380945671E-1
4.036414499E0,7.453751564E-2,3.003588319E-2,-2.316875458E-1,2.452286981E-1
4.041129447E0,5.650115013E-2,1.090565324E-2,-2.102613449E-1,2.179934550E-1
4.045844447E0,5.280160904E-2,4.870721698E-2,-1.937828064E-1,2.066692502E-1
4.050559395E0,6.326413155E-2,6.721058488E-2,-1.727304459E-1,1.958453982E-1
4.055274343E0,1.668834686E-2,8.083102107E-2,-1.376171112E-1,1.604700102E-1
4.059989291E0,1.779890060E-2,1.180666089E-1,-9.335613251E-2,1.515648128E-1
4.064704239E0,2.828526497E-2,9.809580445E-2,-4.475116730E-2,1.114697719E-1
4.069419239E0,5.270886421E-2,9.252861142E-2,-3.458499908E-2,1.119637908E-1
4.074134186E0,5.298495293E-2,5.396422744E-2,-3.405761719E-2,8.294253654E-2
4.078849134E0,7.683277130E-2,6.325078011E-2,-1.934528351E-2,1.013813391E-1
4.083564082E0,3.857874870E-2,4.405736923E-2,-1.905632019E-2,6.158339853E-2
4.088279030E0,4.799723625E-2,2.985891700E-2,-2.829170227E-2,6.321162891E-2
4.092994030E0,2.876091003E-2,6.359308958E-3,-1.849460602E-2,3.478047165E-2
4.097708978E0,3.325676918E-2,2.105763555E-2,-5.628585815E-2,6.868431072E-2
4.102423926E0,2.806854248E-2,3.095975518E-2,-7.008171082E-2,8.159531671E-2
4.107138874E0,4.659938812E-2,3.598046303E-2,-7.429027557E-2,9.478998754E-2
4.111853874E0,6.017947197E-2,3.608998656E-2,-6.424903870E-2,9.514197260E-2
4.116568822E0,4.997301102E-2,5.996346474E-2,-6.376266479E-2,1.007898624E-1
4.121283770E0,5.414199829E-2,7.409328222E-2,-9.174060822E-2,1.297594299E-1
4.125998718E0,6.787633896E-2,7.854342461E-2,-9.097862244E-2,1.380339693E-1
4.130713718E0,5.777001381E-2,7.819354534E-2,-1.234426498E-1,1.571295416E-1
4.135428666E0,5.723690987E-2,7.786381245E-2,-9.868812561E-2,1.381237969E-1
4.140143614E0,7.563781738E-2,7.759013772E-2,-1.358489990E-1,1.737707093E-1
4.144858561E0,8.913993835E-2,7.257300615E-2,-1.347341537E-1,1.771046640E-1
4.149573509E0,1.025292873E-1,4.386889935E-2,-1.383743286E-1,1.777194134E-1
4.154288509E0,8.727931976E-2,2.964136004E-2,-1.420011520E-1,1.692944685E-1
4.159003457E0,6.735968590E-2,4.393652081E-2,-1.123971939E-1,1.382059128E-1
4.163718405E0,8.093523979E-2,3.916558623E-2,-1.446981430E-1,1.703584714E-1
4.168433353E0,6.112861633E-2,3.909239173E-2,-9.132575989E-2,1.166418332E-1
4.173148353E0,2.250695229E-2,2.951106429E-2,-4.314327240E-2,5.691052425E-2
4.177863301E0,1.257729530E-2,2.004560828E-2,-9.633064270E-3,2.555016039E-2
4.182578249E0,3.115653992E-2,1.051792502E-2,1.883125305E-2,3.789423199E-2
4.187293197E0,1.626086235E-2,1.530838013E-2,3.278827667E-2,3.967156707E-2
4.192008197E0,-1.284933090E-2,5.733817816E-3,5.133819580E-2,5.323149744E-2
4.196723145E0,-1.809263229E-2,6.266245246E-2,6.020736694E-2,8.876290512E-2
4.201438093E0,1.451873779E-2,4.320308566E-2,5.471515656E-2,7.121129626E-2
4.206153041E0,1.822900772E-2,5.239912868E-2,5.396461487E-2,7.739602746E-2
4.210867989E0,3.129577637E-2,4.731705785E-2,6.268024445E-2,8.454077493E-2
4.215582989E0,5.375027657E-2,2.805855870E-2,3.810596466E-2,7.161312373E-2
4.220297936E0,4.754304886E-2,2.799671888E-2,-9.990692139E-3,5.607113065E-2
4.225012884E0,7.466602325E-2,4.171818495E-3,-7.209777832E-4,7.478595394E-2
4.229727832E0,9.687280655E-2,2.803882957E-2,-6.269454956E-2,1.187481501E-1
4.234442832E0,9.538102150E-2,2.316161990E-2,-8.611965179E-2,1.305779243E-1
4.239157780E0,7.502532005E-2,2.301740646E-2,-6.660461426E-2,1.029309200E-1
4.243872728E0,9.296703339E-2,2.765592933E-2,-1.136388779E-1,1.494038630E-1
4.248587676E0,6.810331345E-2,2.269360423E-2,-6.535053253E-2,9.707601700E-2
4.253302624E0,6.728219986E-2,2.246502042E-2,-7.438182831E-2,1.027824301E-1
4.258017624E0,8.545303345E-2,4.125720263E-2,-5.960750580E-2,1.120599502E-1
4.262732572E0,9.867620468E-2,3.134745359E-2,-5.446720123E-2,1.169885987E-1
4.267447520E0,1.069896221E-1,5.484706163E-2,-1.616287231E-2,1.213104194E-1
4.272162520E0,9.145498276E-2,5.440443754E-2,-5.412483215E-2,1.193874120E-1
4.276877468E0,1.139645576E-1,5.869370699E-2,-3.483963013E-2,1.328407749E-1
4.281592416E0,3.651881218E-2,7.243853807E-2,-3.473377228E-2,8.824624852E-2
4.286307364E0,4.993939400E-2,5.286571383E-2,-1.391410828E-3,7.273694244E-2
4.291022364E0,6.324577332E-2,7.149270177E-2,-2.052688599E-2,9.763496964E-2
4.295737311E0,3.373122215E-2,6.621804833E-2,-4.424858093E-2,8.649024331E-2
4.300452259E0,7.095742226E-2,4.674997926E-2,-3.928184509E-2,9.361399301E-2
4.305167207E0,3.673768044E-2,4.159212112E-2,-6.756401062E-2,8.743258680E-2
4.309882207E0,4.551744461E-2,4.589802027E-2,-9.086608887E-2,1.115128339E-1
4.314597155E0,1.161623001E-2,2.640324831E-2,-8.546733856E-2,9.020384849E-2
4.319312103E0,-7.818460464E-3,-2.620270848E-2,-8.487892151E-2,8.917478103E-2
4.324027103E0,-1.765537262E-2,-2.145701647E-2,-9.855270386E-2,1.023950740E-1
4.328742051E0,-5.119514465E-2,-1.198768616E-2,-6.941795349E-2,8.708329187E-2
4.333456999E0,-5.134630203E-2,6.875783205E-3,-5.954647064E-2,7.892718982E-2
4.338171947E0,-5.160260201E-2,3.971281648E-2,-5.454254150E-2,8.494012691E-2
4.342886947E0,-4.247403145E-2,5.794969201E-2,-5.436611176E-2,9.009930221E-2
4.347601895E0,-1.902914047E-2,9.494590759E-2,-5.888938904E-2,1.133348741E-1
4.352316843E0,1.381325722E-2,5.109721422E-2,-5.384445190E-2,7.550467785E-2
4.357031791E0,-1.051592827E-2,7.881781459E-2,-7.255363464E-2,1.076422898E-1
4.361746791E0,3.318786621E-3,4.949972034E-2,-3.889656067E-2,6.304109049E-2
4.366461739E0,3.596067429E-2,3.487542272E-2,-2.451515198E-2,5.577147910E-2
4.371176686E0,4.929208755E-2,4.881170392E-2,-6.247615814E-2,9.335717793E-2
4.375891634E0,3.861832619E-2,4.848271608E-2,-7.644081116E-2,9.841314184E-2
4.380606634E0,6.108927727E-2,8.403062820E-4,-6.660842896E-2,9.038411763E-2
4.385321582E0,5.010175705E-2,-8.349835873E-3,-9.009265900E-2,1.034243348E-1
4.390036530E0,4.379129410E-2,-1.735678315E-2,-1.086807251E-1,1.184501387E-1
4.394751530E0,3.278493881E-2,-7.234871387E-3,-1.223678589E-1,1.268900645E-1
4.399466478E0,2.892255783E-3,2.714425325E-3,-1.027221680E-1,1.027987210E-1
4.404181426E0,6.522417068E-3,-6.455630064E-3,-1.259374619E-1,1.262713799E-1
4.408896374E0,-8.914470673E-3,8.126258850E-3,-1.110143661E-1,1.116677812E-1
4.413611374E0,1.854252815E-2,-1.195549965E-3,-1.104373932E-1,1.119896089E-1
4.418326322E0,1.740026474E-2,4.631367326E-2,-9.085559845E-2,1.034527202E-1
4.423041270E0,1.157522202E-2,6.495234370E-2,-9.040355682E-2,1.119178083E-1
4.427756218E0,4.856133461E-2,5.007284880E-2,-9.469127655E-2,1.176092312E-1
4.432471218E0,-4.932641983E-3,6.850188971E-2,-7.996273041E-2,1.054081501E-1
4.437186166E0,3.764867783E-3,3.928390145E-2,-7.957935333E-2,8.882720653E-2
4.441901114E0,3.142166138E-2,8.147761226E-2,-6.969261169E-2,1.117272672E-1
4.446616114E0,4.461050034E-2,6.631717086E-2,-5.988979340E-2,9.987417706E-2
4.451331061E0,4.355645180E-2,8.916008472E-2,-3.590297699E-2,1.055258687E-1
4.456046009E0,7.108950615E-2,5.488097668E-2,-5.479240417E-2,1.052038357E-1
4.460760957E0,4.154872894E-2,4.458063841E-2,-2.603340149E-2,6.626815367E-2
4.465475957E0,6.456160545E-2,4.856762290E-2,-2.120971680E-2,8.352764201E-2
4.470190905E0,3.522968292E-2,5.728474259E-2,-1.166439056E-2,6.825489213E-2
4.474905853E0,3.477454185E-2,6.589347124E-2,-3.062057495E-2,8.055332348E-2
4.479620801E0,6.759452820E-2,6.975567341E-2,-6.689071655E-3,9.736332931E-2
4.484335801E0,6.217288971E-2,7.360333204E-2,-1.143169403E-2,9.702372046E-2
4.489050749E0,4.266238213E-2,7.269075513E-2,-1.135349274E-2,8.504661385E-2
4.493765697E0,3.754973412E-2,6.220516562E-2,7.702827454E-3,7.306708365E-2
4.498480697E0,7.998800278E-2,3.284156322E-2,2.187156677E-2,8.919088685E-2
4.503195645E0,6.981301308E-2,5.125132203E-2,1.217746735E-2,8.745767843E-2
4.507910593E0,7.875943184E-2,6.006944180E-2,4.055118561E-2,1.070316990E-1
4.512625593E0,6.379532814E-2,5.447021127E-2,4.966545105E-2,9.748592122E-2
4.517340541E0,3.471899033E-2,2.044314146E-2,3.971958160E-2,5.657716399E-2
4.522055489E0,5.808591843E-2,4.851889610E-2,3.460788727E-2,8.322116954E-2
4.526770436E0,8.595275879E-2,7.634314895E-2,4.375743866E-2,1.230075875E-1
4.531485436E0,7.087564468E-2,7.082188129E-2,1.961708069E-2,1.020976284E-1
4.536200384E0,8.450531960E-2,7.489156723E-2,-4.285812378E-3,1.129967436E-1
4.540915332E0,6.954956055E-2,3.145205975E-2,-9.004592896E-3,7.685997741E-2
4.545630332E0,7.855367661E-2,3.577890992E-2,-3.263473511E-2,9.228128976E-2
4.550345280E0,5.911707878E-2,3.530633450E-2,-2.755928040E-2,7.416791891E-2
4.555060228E0,6.831765175E-2,3.483766317E-2,-4.625320435E-2,8.955625734E-2
4.559775176E0,6.800556183E-2,3.904768825E-2,-8.376121521E-2,1.147406622E-1
4.564490176E0,5.356574059E-2,4.322260618E-2,-1.019363403E-1,1.229979664E-1
4.569205124E0,5.822896957E-2,3.312540054E-2,-1.009778976E-1,1.211793748E-1
4.573920072E0,4.866743088E-2,3.731387854E-2,-7.628440857E-2,9.787826802E-2
4.578635072E0,4.393124580E-2,1.299282908E-2,-7.552528381E-2,8.833366550E-2
4.583350020E0,7.709598541E-2,1.269233227E-2,-7.954883575E-2,1.115029306E-1
4.588064916E0,6.721925735E-2,7.648557425E-3,-8.830070496E-2,1.112382285E-1
4.592779968E0,8.579254150E-2,-2.098917961E-3,-7.803344727E-2,1.159913123E-1
4.597494916E0,5.659294128E-2,-2.166897058E-3,-7.739067078E-2,9.589980380E-2
4.602209864E0,6.544589996E-2,-4.485708475E-2,-8.629131317E-2,1.172242066E-1
4.606924811E0,4.564332962E-2,-2.080422640E-2,-5.719089508E-2,7.607185981E-2
4.611639811E0,2.226352692E-3,-3.018975258E-2,-5.682468414E-2,6.438495581E-2
4.616354759E0,2.550768852E-2,-3.946131468E-2,-3.276538849E-2,5.728357716E-2
4.621069707E0,3.430700302E-2,-4.392758012E-2,-3.739833832E-2,6.712107315E-2
4.625784707E0,3.348803520E-2,-2.468115091E-2,-4.676055908E-2,6.258719995E-2
4.630499655E0,1.844096184E-2,-5.559384823E-3,-2.756595612E-2,3.362822876E-2
4.635214603E0,5.087018013E-2,3.964930773E-3,-4.178524017E-2,6.595075586E-2
4.639929603E0,2.608275414E-2,2.293708920E-2,-3.215503693E-2,4.733251022E-2
4.644644551E0,4.895925522E-2,-5.653113127E-3,-1.785755157E-2,5.242002011E-2
4.649359499E0,1.944470406E-2,1.348832250E-2,-2.265739441E-2,3.276261407E-2
4.654074499E0,4.702067375E-2,1.821523905E-2,-1.796436310E-2,5.352996390E-2
4.658789447E0,2.211046219E-2,2.770191431E-2,-1.807022095E-2,3.978443766E-2
4.663504395E0,2.102851868E-3,3.714516759E-2,-3.952980042E-3,3.741405501E-2
4.668219343E0,2.486681938E-2,3.712502122E-2,-5.167770386E-2,6.831698898E-2
4.672934343E0,1.885938644E-2,2.766689658E-2,-4.208946228E-2,5.378342178E-2
4.677649291E0,3.172779083E-2,2.781474590E-2,-4.158020020E-3,4.239813594E-2
4.682364239E0,1.596307755E-2,3.284949064E-2,-2.824592590E-2,4.617078308E-2
4.687079239E0,1.702308655E-4,4.264140129E-2,-4.269313812E-2,6.034088270E-2
4.691794186E0,1.288127899E-2,2.394831181E-2,-1.433944702E-2,3.074197013E-2
4.696509134E0,1.103591919E-2,1.511603594E-2,-4.323196411E-2,4.710932791E-2
4.701224134E0,1.859378815E-2,3.966662288E-2,-1.971149445E-2,4.803866090E-2
4.705939082E0,2.582144737E-2,2.156755328E-2,-1.070213318E-2,3.530498766E-2
4.710654030E0,1.843118668E-2,1.796314120E-2,-6.615638733E-3,2.657347851E-2
4.715369030E0,1.552844048E-2,1.449534297E-2,-2.665519714E-3,2.140916689E-2
4.720083978E0,3.131532669E-2,-3.038823605E-3,-8.341789246E-3,3.254949435E-2
4.724798926E0,3.716421127E-2,-2.035623789E-2,-1.881790161E-2,4.636451705E-2
4.729513926E0,2.856945992E-2,3.369224072E-2,-5.298995972E-2,6.898780294E-2
4.734228874E0,3.407073021E-2,3.028741479E-2,-6.796932220E-2,8.184113216E-2
4.738943822E0,-1.752710342E-2,5.067479610E-2,-5.912971497E-2,7.982141008E-2
4.743658822E0,1.667833328E-2,8.041885495E-2,-8.360290527E-2,1.171955835E-1
4.748373770E0,-1.578831673E-2,5.296543241E-2,-7.938003540E-2,9.672537410E-2
4.753088718E0,-2.884149551E-2,6.365320086E-2,-6.565284729E-2,9.588460878E-2
4.757803666E0,-3.213167191E-2,9.321665764E-2,-4.249477386E-2,1.073666401E-1
4.762518666E0,-3.054165840E-2,9.395205975E-2,-6.221199036E-2,1.167480800E-1
4.767233614E0,-2.880215645E-2,6.133586168E-2,-5.798912048E-2,8.918738834E-2
4.771948614E0,-3.188848495E-3,5.266669393E-2,-5.374908447E-2,7.531874591E-2
4.776663561E0,-1.514673233E-3,3.455972672E-2,-2.581787109E-2,4.316516435E-2
4.781378509E0,4.296183586E-2,-2.414971590E-3,-4.554557800E-2,6.265741061E-2
4.786093457E0,7.282781601E-2,-2.482646704E-2,-8.160591125E-3,7.737466961E-2
4.790808457E0,8.804297447E-2,-3.272473812E-2,-4.232597351E-2,1.030240839E-1
4.795523353E0,1.173081398E-1,-6.892430782E-2,-5.249500275E-2,1.458337587E-1
4.800238353E0,1.226491928E-1,-4.309114814E-2,-6.256484985E-2,1.442706900E-1
4.804953353E0,1.373794079E-1,-5.545645952E-2,-7.257175446E-2,1.649702402E-1
4.809668301E0,1.379046440E-1,-2.502381802E-2,-9.193706512E-2,1.676195283E-1
4.814383301E0,1.290941238E-1,-9.188741446E-3,-8.736228943E-2,1.561470313E-1
4.819098249E0,1.110765934E-1,2.540901303E-2,-8.275985718E-2,1.408290506E-1
4.823813197E0,1.124076843E-1,4.540950060E-2,-6.388854980E-2,1.370374293E-1
4.828528197E0,9.026479721E-2,3.676867485E-2,-7.830429077E-2,1.250249216E-1
4.833243145E0,4.009866714E-2,6.131356955E-2,-6.404018402E-2,9.730571456E-2
4.837958093E0,2.389287949E-2,5.241516232E-2,-4.029083252E-2,7.029630230E-2
4.842673093E0,2.232599258E-2,7.195889950E-2,-2.140045166E-2,7.832312872E-2
4.847388041E0,1.144289970E-2,7.239153981E-2,2.137184143E-3,7.332150125E-2
4.852102989E0,5.296063423E-2,2.536281943E-2,6.530761719E-3,5.908258827E-2
4.856817989E0,7.994842529E-2,1.189303398E-2,1.413345337E-3,8.084053754E-2
4.861532936E0,1.179599762E-2,-1.106265187E-2,2.006244659E-2,2.576877160E-2
4.866247884E0,2.494311333E-2,-3.862622380E-2,1.009654999E-2,4.707530552E-2
4.870962884E0,1.430225372E-2,-5.655679107E-2,1.921081543E-2,6.141889373E-2
4.875677832E0,2.742600441E-2,-5.546146631E-2,4.495620728E-3,6.203523651E-2
4.880392780E0,4.043793678E-2,-5.446341634E-2,-5.354881287E-3,6.804531728E-2
4.885107780E0,1.062965393E-2,-2.979817986E-2,1.334762573E-2,3.433773695E-2
4.889822728E0,-1.091957092E-4,-4.339277744E-2,3.658294678E-2,5.675611908E-2
4.894537624E0,8.115768433E-3,-5.696219206E-2,2.161502838E-2,6.146353775E-2
4.899252676E0,1.621890068E-2,-5.148878694E-2,3.997135162E-2,6.717035708E-2
4.903967624E0,1.950645447E-2,-2.231365442E-2,2.969932556E-2,4.195772728E-2
4.908682572E0,4.649591446E-2,-2.185627818E-2,6.222438812E-2,8.069350305E-2
4.913397572E0,4.489016533E-2,2.132761478E-2,5.655097961E-2,7.528616998E-2
4.918112468E0,2.447414398E-2,7.202506065E-3,5.097770691E-2,5.700514379E-2
4.922827468E0,5.179286003E-2,1.217815280E-2,2.650547028E-2,5.944196927E-2
4.927542468E0,6.011581421E-2,3.613007069E-2,1.655101776E-2,7.206406396E-2
4.932257416E0,8.287334442E-2,3.140783310E-2,-2.644824982E-2,9.248758357E-2
4.936972364E0,7.232499123E-2,2.684998512E-2,-2.159118652E-2,8.011245466E-2
4.941687364E0,7.626128197E-2,1.758435369E-2,-4.519271851E-2,9.037352725E-2
4.946402311E0,9.445786476E-2,1.317644119E-2,-5.908489227E-2,1.121914939E-1
4.951117311E0,7.453656197E-2,-1.492357254E-2,-7.760715485E-2,1.086337083E-1
4.955832259E0,8.320713043E-2,-3.797420859E-2,-7.700634003E-2,1.195635541E-1
4.960547207E0,7.277607918E-2,-4.665112495E-2,-1.096496582E-1,1.396271202E-1
4.965262207E0,4.814553261E-2,-5.523952842E-2,-1.040716171E-1,1.272803964E-1
4.969977155E0,-9.657382965E-3,-2.106299996E-2,-9.385013580E-2,9.666831437E-2
4.974692103E0,-2.442646027E-2,8.136242628E-3,-5.054664612E-2,5.672577755E-2
4.979407103E0,-4.387187958E-2,3.871768713E-3,-2.660655975E-2,5.145523717E-2
4.984122051E0,-6.326150894E-2,2.811741829E-2,-7.647514343E-3,6.964978249E-2
4.988836999E0,-9.203433990E-2,3.323122859E-2,-3.100395203E-3,9.789916611E-2
4.993551999E0,-8.740282059E-2,5.730402470E-2,-1.759338379E-2,1.059836376E-1
4.998266947E0,-6.851911545E-2,8.106967807E-2,-1.296710968E-2,1.069359987E-1
5.002981947E0,-6.403231621E-2,3.341612220E-2,1.108169556E-3,7.223574449E-2
5.007696895E0,-4.059958458E-2,4.780128598E-2,-2.764701843E-2,6.853938166E-2
5.012411843E0,-4.098701477E-2,-4.462063313E-3,-3.926277161E-3,4.141571008E-2
5.017126843E0,-2.697634697E-2,5.713403225E-4,-1.831912994E-2,3.261349793E-2
5.021841791E0,-6.032943726E-2,1.016739011E-2,-1.354026794E-2,6.266063898E-2
5.026556739E0,-7.900738716E-2,-2.318826318E-2,-3.248214722E-2,8.851526797E-2
5.031271634E0,-3.562355042E-2,1.003363729E-2,-2.272319794E-2,4.342873410E-2
5.035986686E0,-1.147818565E-2,1.914331317E-2,-2.250480652E-2,3.169671121E-2
5.040701634E0,-2.059459686E-2,1.393976808E-2,-7.995605469E-3,2.612248573E-2
5.045416582E0,8.435487747E-3,3.945887089E-3,-3.154087067E-2,3.288698832E-2
5.050131582E0,4.058837891E-3,2.729028463E-2,-7.411003113E-3,2.856845756E-2
5.054846582E0,-1.771450043E-4,3.142243624E-2,2.315521240E-3,3.150813416E-2
5.059561530E0,-4.431247711E-3,4.031914473E-2,7.200241089E-3,4.119602966E-2
5.064276478E0,-3.903865814E-3,4.914173484E-2,1.204204559E-2,5.074604549E-2
5.068991478E0,6.059408188E-3,3.894242644E-2,2.157402039E-2,4.492958224E-2
5.073706426E0,2.057671547E-2,5.171179771E-3,4.522895813E-2,4.995799209E-2
5.078421374E0,-3.154993057E-3,1.921075583E-2,4.964923859E-2,5.332967291E-2
5.083136374E0,6.424903870E-3,9.404569864E-3,2.077674866E-2,2.369385171E-2
5.087851322E0,-3.058195114E-3,2.820792794E-2,2.536582947E-2,3.805870545E-2
5.092566322E0,-1.262187958E-2,-1.009455323E-2,-3.358840942E-3,1.650738203E-2
5.097281270E0,-3.229379654E-3,-1.960328221E-2,2.032279968E-2,2.842065716E-2
5.101996218E0,-2.713346481E-2,-3.854283690E-2,1.533222198E-2,4.956664423E-2
5.106711218E0,-2.710938454E-2,-1.461270452E-2,-8.600234985E-3,3.197520766E-2
5.111426166E0,-3.668379784E-2,9.118020535E-3,-3.237056732E-2,4.976638374E-2
5.116141114E0,-5.092644691E-2,4.248231649E-3,-3.736495972E-3,5.123974892E-2
5.120856114E0,-2.217626572E-2,-7.060766220E-4,-1.325607300E-2,2.584586576E-2
5.125571061E0,-3.108263016E-3,1.340106130E-2,-3.691482544E-2,3.939484840E-2
5.130286061E0,1.614570618E-3,-5.811154842E-3,-4.137516022E-2,4.181244123E-2
5.135001009E0,1.120328903E-2,-5.933493376E-3,-8.371067047E-2,8.466520170E-2
5.139715957E0,3.031039238E-2,-1.559960842E-2,-9.718513489E-2,1.029903787E-1
5.144430957E0,6.653070450E-3,-1.105445623E-2,-5.830955505E-2,5.971991761E-2
5.149145905E0,4.025053978E-2,-3.978613019E-2,-8.141708374E-2,9.915535100E-2
5.153860853E0,4.504275322E-2,-3.987562656E-2,-6.638717651E-2,8.958890789E-2
5.158575853E0,3.086256981E-2,-2.106940746E-2,-5.621337891E-2,6.750083047E-2
5.163290801E0,5.002331734E-2,-2.152812481E-2,-4.138278961E-2,6.839830196E-2
5.168005801E0,4.529809952E-2,-2.669402957E-2,1.799583435E-3,5.260919630E-2
5.172720749E0,5.015897751E-2,-2.239724994E-2,1.616477966E-2,5.726133015E-2
5.177435697E0,5.012965202E-2,8.282661438E-4,3.037357330E-2,5.861929710E-2
5.182150697E0,4.541063309E-2,-1.401782036E-2,2.550315857E-2,5.393547981E-2
5.186865645E0,1.705503464E-2,-3.348597884E-2,4.442119598E-2,5.818442780E-2
5.191580645E0,2.695989609E-2,-1.966190338E-2,2.997779846E-2,4.485638017E-2
5.196295593E0,3.561973572E-3,-1.069876552E-2,6.311225891E-2,6.411168742E-2
5.201010541E0,4.090070724E-3,-6.574571133E-3,5.800342560E-2,5.851795490E-2
5.205725541E0,-1.431393623E-2,-2.396672964E-3,1.974105835E-2,2.450188149E-2
5.210440489E0,3.398299217E-2,1.123791933E-2,-3.929138184E-3,3.600795349E-2
5.215155436E0,-3.495693207E-3,1.528590918E-2,-1.314640045E-2,2.046232477E-2
5.219870436E0,2.588558197E-2,1.930019259E-2,-3.648662567E-2,4.872201393E-2
5.224585384E0,2.665615082E-2,3.270071745E-2,-3.586959839E-2,5.537612650E-2
5.229300384E0,8.488893509E-3,1.764008403E-2,-5.421638489E-2,5.764243461E-2
5.234015332E0,9.511709213E-3,3.121435642E-2,-3.442478180E-2,4.743283948E-2
5.238730280E0,-1.320314407E-2,3.987643123E-2,-3.852844238E-2,5.699906713E-2
5.243445280E0,-2.454519272E-3,2.468422055E-2,-3.309154510E-2,4.135681040E-2
5.248160228E0,3.405332565E-3,2.865499258E-2,-2.771472931E-2,4.001013759E-2
5.252875228E0,4.417419434E-3,8.863866329E-3,-5.562305450E-2,5.649783990E-2
5.257590176E0,1.496839523E-2,3.193107247E-2,-3.107738495E-2,4.700478806E-2
5.262305124E0,2.063465118E-2,1.207572222E-2,-6.753921509E-3,2.484406070E-2
5.267020124E0,-1.171231270E-2,2.549958229E-2,-1.620292664E-3,2.810751348E-2
5.271735072E0,-5.770206451E-3,2.468097210E-2,-5.999565125E-3,2.604688941E-2
5.276450072E0,9.613990784E-3,4.886120558E-3,2.287864685E-2,2.529299260E-2
5.281165020E0,1.063513756E-2,8.966684341E-3,-6.866455078E-4,1.392763659E-2
5.285879968E0,2.588558197E-2,6.052425504E-2,2.814960480E-2,7.159363835E-2
5.290594968E0,2.935886383E-3,5.001059175E-2,9.251594543E-3,5.094379959E-2
5.295309916E0,1.339578629E-2,3.965637088E-2,-2.846813202E-2,5.062123450E-2
5.300024916E0,-6.937980652E-5,5.318906903E-2,-3.268718719E-2,6.243023374E-2
5.304739864E0,9.193420410E-4,6.662744284E-2,-4.632759094E-2,8.115606577E-2
5.309454811E0,6.747245789E-3,7.065919042E-2,-7.879352570E-2,1.060503004E-1
5.314169811E0,1.737451553E-2,8.898481727E-2,-8.721923828E-2,1.258068640E-1
5.318884759E0,2.801322937E-2,4.551807046E-2,-8.604717255E-2,1.012953684E-1
5.323599759E0,4.810523987E-2,4.978281260E-2,-1.038551331E-1,1.248131852E-1
5.328314707E0,4.440331459E-2,4.455727339E-2,-7.876682281E-2,1.008028637E-1
5.333029655E0,3.134799004E-2,4.881337285E-2,-5.385017395E-2,7.915354119E-2
5.337744655E0,4.207658768E-2,1.501449943E-2,-6.904602051E-4,4.468054564E-2
5.342459603E0,9.950876236E-3,2.426251769E-2,9.298324585E-3,2.782352499E-2
5.347174603E0,1.595449448E-2,1.448541880E-2,4.764461517E-2,5.229132439E-2
5.351889551E0,3.598570824E-2,9.535491467E-3,7.137775421E-2,8.050267443E-2
5.356604447E0,-1.313209534E-3,2.840906382E-2,9.484291077E-2,9.901503496E-2
5.361319499E0,4.306316376E-3,-2.972781658E-4,1.038408279E-1,1.039305070E-1
5.366034447E0,-1.411700249E-2,-1.447367668E-2,1.174201965E-1,1.191481415E-1
5.370749447E0,-2.299928665E-2,-7.575750351E-5,1.023740768E-1,1.049258049E-1
5.375464395E0,-3.386497498E-3,-1.896476746E-2,6.845569611E-2,7.111478819E-2
5.380179343E0,-2.195668221E-2,-3.295063972E-2,5.852985382E-2,7.066529799E-2
5.384894343E0,-3.082680702E-2,-2.325120568E-2,4.869842529E-2,6.214858987E-2
5.389609291E0,-1.584124565E-2,-4.216060042E-2,1.049041748E-2,4.624402827E-2
5.394324291E0,-1.980352402E-2,-3.243783116E-2,5.875587463E-3,3.845666369E-2
5.399039239E0,-4.480123520E-3,-2.286773920E-2,-2.234077454E-2,3.228180927E-2
5.403754239E0,-3.364086151E-3,-1.826500893E-2,-2.180004120E-2,2.863860023E-2
5.408469186E0,1.208424568E-2,-1.848149300E-2,-1.648330688E-2,2.755528956E-2
5.413184134E0,1.337981224E-2,-3.304025531E-2,-2.063560486E-2,4.118866391E-2
5.417899134E0,1.951718330E-2,-4.819214344E-3,-1.997280121E-2,2.833827904E-2
5.422614082E0,3.040027618E-2,2.313151956E-2,-1.455307007E-2,4.087830522E-2
5.427329082E0,4.124403000E-2,2.244633436E-2,-4.414558411E-3,4.716350562E-2
5.432044030E0,2.821278572E-2,3.596898913E-2,-3.871917725E-3,4.587724059E-2
5.436758978E0,4.391980171E-2,4.946878552E-2,1.096057892E-2,6.705403801E-2
5.441473978E0,2.632689476E-2,5.338275433E-2,1.958847046E-3,5.955384898E-2
5.446188926E0,4.695057869E-2,2.411526442E-2,7.307052612E-3,5.328504326E-2
5.450903926E0,1.519942284E-2,-1.626610756E-4,3.121376038E-3,1.551747085E-2
5.455618874E0,3.127765656E-2,-5.095303059E-4,-1.523303986E-2,3.479363338E-2
5.460333822E0,6.625843048E-2,1.333025098E-2,-1.918029785E-2,7.025495731E-2
5.465048822E0,1.552677155E-2,-2.516704798E-2,-4.114151001E-3,2.985610787E-2
5.469763770E0,7.875919342E-3,-1.599285007E-2,-1.292419434E-2,2.201899539E-2
5.474478718E0,-1.874732971E-2,-2.202928066E-3,-7.443428040E-3,2.029088180E-2
5.479193718E0,6.947994232E-3,6.619393826E-3,1.218509674E-2,1.551024117E-2
5.483908718E0,-8.976459503E-4,2.485954762E-2,2.212333679E-2,3.329031251E-2
5.488623666E0,7.064342499E-4,3.350958228E-2,4.618167877E-2,5.706258501E-2
5.493338614E0,-2.634072304E-2,2.786827087E-2,2.727222443E-2,4.705580131E-2
5.498053614E0,-3.428554535E-2,2.243417501E-2,-1.523685455E-2,4.371444344E-2
5.502768561E0,-5.646014214E-2,1.228234172E-2,-9.956359863E-3,5.863218118E-2
5.507483561E0,-4.528784752E-2,-2.387702465E-3,-2.371501923E-2,5.117706901E-2
5.512198457E0,-5.335211754E-2,2.154380083E-3,-3.740978241E-2,6.519648472E-2
5.516913509E0,-2.344107628E-2,6.748080254E-3,-4.625988007E-2,5.229720019E-2
5.521628457E0,-8.019208908E-3,-3.608268499E-2,-7.401657104E-2,8.273282696E-2
5.526343405E0,-2.268552780E-3,-8.332052827E-2,-6.834030151E-2,1.077861474E-1
5.531058405E0,3.381252289E-3,-9.694451094E-2,-8.171176910E-2,1.268325048E-1
5.535773301E0,4.189729691E-3,-1.105446517E-1,-8.075523376E-2,1.369637968E-1
5.540488353E0,1.917791367E-2,-9.088274837E-2,-7.508182526E-2,1.194351155E-1
5.545203301E0,7.698535919E-4,-3.338322043E-2,-5.048942566E-2,6.053275299E-2
5.549918301E0,6.302595139E-3,4.617840052E-3,-3.082942963E-2,3.180410167E-2
5.554633197E0,2.300262451E-3,3.273916245E-2,7.648468018E-3,3.369930308E-2
5.559348197E0,1.267552376E-2,7.017105818E-2,2.686023712E-2,7.619789135E-2
5.564063197E0,8.727073669E-3,6.457912922E-2,3.641986847E-2,7.465274653E-2
5.568778145E0,4.862308502E-3,6.379756331E-2,2.218818665E-2,6.772065236E-2
5.573493145E0,3.899621964E-2,5.833023787E-2,3.180885315E-2,7.703846399E-2
5.578208093E0,3.493046761E-2,1.970610023E-2,1.289081573E-2,4.212648910E-2
5.582923093E0,4.033637047E-2,2.886143327E-2,-1.537704468E-2,5.192743606E-2
5.587638041E0,1.716685295E-2,2.846691012E-2,-2.444648743E-2,4.126374389E-2
5.592352989E0,3.628253937E-3,-3.989636898E-4,-3.820419312E-2,3.837816789E-2
5.597067989E0,9.182929993E-3,1.839777827E-2,-4.710292816E-2,5.139543063E-2
5.601782936E0,2.418327332E-2,8.509755135E-3,-5.118465424E-2,5.724609567E-2
5.606497936E0,2.002167702E-2,-2.027902007E-2,-3.626728058E-2,4.612398342E-2
5.611212884E0,1.114916801E-2,-2.995184064E-2,-3.571701050E-2,4.792829586E-2
5.615927884E0,-7.084369659E-3,-1.119467616E-2,-3.515815735E-2,3.757133343E-2
5.620642832E0,-1.573109627E-2,-2.579620481E-2,-3.936767578E-2,4.962585484E-2
5.625357780E0,-3.374385834E-2,-3.078466654E-2,-2.928638458E-2,5.425897153E-2
5.630072780E0,-4.216527939E-2,-6.907704473E-2,1.390552521E-2,8.211523930E-2
5.634787728E0,-7.429885864E-2,-2.637240291E-2,4.517555237E-3,7.896981915E-2
5.639502728E0,-5.881190300E-2,-3.149932623E-2,3.788375854E-2,7.672174821E-2
5.644217676E0,-7.667183876E-2,-2.711004019E-2,5.198955536E-2,9.652170225E-2
5.648932676E0,-5.646777153E-2,-3.221327066E-2,3.748607635E-2,7.504338711E-2
5.653647624E0,-7.914376259E-2,-2.772900462E-2,4.208946228E-2,9.383046248E-2
5.658362624E0,-4.473543167E-2,-4.192024469E-3,3.715038300E-2,5.830079650E-2
5.663077572E0,-4.852676392E-2,-9.325772524E-3,3.701591492E-2,6.174135410E-2
5.667792520E0,-2.850079536E-2,-1.923403144E-2,2.740573883E-2,4.396951015E-2
5.672507520E0,-2.767872810E-2,-3.849774599E-2,1.311492920E-2,4.919542462E-2
5.677222468E0,1.115846634E-2,-4.812735319E-2,-5.784034729E-3,4.974141689E-2
5.681937468E0,-2.151679993E-2,-1.500049233E-2,-5.545616150E-3,2.680935113E-2
5.686652416E0,-1.713514328E-3,-2.951818705E-2,-5.578994751E-4,2.957314237E-2
5.691367416E0,2.736473083E-2,1.770856977E-2,-5.125045776E-3,3.299527286E-2
5.696082364E0,4.050970078E-3,1.708409190E-2,9.348869324E-3,1.989165434E-2
5.700797364E0,3.782987595E-2,1.175463200E-2,-4.790306091E-3,3.990260543E-2
5.705512311E0,2.376508713E-2,1.119744778E-2,1.437282562E-2,2.994562271E-2
5.710227259E0,2.405476570E-2,2.962797880E-2,1.913928986E-2,4.269380865E-2
5.714942259E0,3.852558136E-2,1.479157805E-2,1.436233521E-2,4.369539876E-2
5.719657207E0,4.802584648E-2,1.915106177E-2,1.039505005E-4,5.170353859E-2
5.724372207E0,4.790449142E-2,2.825558186E-2,-4.561424255E-3,5.580344789E-2
5.729087155E0,5.711507797E-2,1.835471392E-2,-1.398372650E-2,6.160009953E-2
5.733802155E0,6.145215034E-2,-2.470195293E-2,-4.707431793E-2,8.125604390E-2
5.738517103E0,5.151820183E-2,-5.669236183E-3,-7.039451599E-2,8.741655015E-2
5.743232051E0,5.590462685E-2,-1.543033123E-2,-4.607105255E-2,7.406729581E-2
5.747947051E0,4.121756554E-2,-2.505657077E-2,-5.518627167E-2,7.329559351E-2
5.752661999E0,6.456542015E-2,-1.435756683E-3,-6.424522400E-2,9.109447669E-2
5.757376999E0,6.393885612E-2,-4.916265607E-2,-4.477024078E-2,9.224705163E-2
5.762091947E0,3.959155083E-2,-3.956064582E-2,-5.867767334E-2,8.109010385E-2
5.766806947E0,3.917574883E-2,-1.580137014E-2,-3.924942017E-2,5.766228904E-2
5.771521895E0,1.508808136E-2,-1.731634140E-3,-1.047325134E-2,1.844824516E-2
5.776236895E0,6.418228149E-4,-6.780117750E-3,-5.683898926E-3,8.870661770E-3
5.780951843E0,1.478791237E-2,-6.969302893E-3,-2.466011047E-2,2.958672986E-2
5.785666843E0,1.932740211E-2,-2.135863900E-2,-7.638931274E-4,2.881533386E-2
5.790381791E0,4.792451859E-3,-2.407640219E-3,3.932952881E-3,6.650747672E-3
5.795096739E0,4.727649689E-2,6.875932217E-3,1.806259155E-2,5.107448302E-2
5.799811739E0,8.779764175E-3,1.135429740E-2,1.311111450E-2,1.943979557E-2
5.804526686E0,2.755594254E-2,1.593679190E-3,1.769351959E-2,3.278613149E-2
5.809241686E0,3.463506699E-3,1.089742780E-2,3.172969818E-2,3.372719315E-2
5.813956634E0,-1.338243484E-3,-3.658711910E-3,2.972602844E-3,4.900350614E-3
5.818671634E0,-1.084566116E-2,9.430646896E-4,1.716709137E-2,2.032797981E-2
5.823386582E0,1.774334908E-2,4.349052906E-2,1.702499390E-2,4.996101452E-2
5.828101582E0,8.178949356E-3,9.769141674E-3,2.639293671E-2,2.930731051E-2
5.832816530E0,8.188486099E-3,1.433050632E-2,2.465248108E-3,1.668808450E-2
5.837531530E0,3.455162048E-3,4.261821508E-2,-1.176929474E-2,4.434824349E-2
5.842246478E0,-1.072812080E-2,-5.341470242E-4,-6.901741028E-3,1.276761208E-2
5.846961426E0,-1.066684723E-3,1.843950152E-2,-2.072334290E-3,1.858622076E-2
5.851676426E0,2.749729156E-2,2.296420932E-2,2.715110779E-3,3.592809179E-2
5.856391374E0,-5.871772766E-3,8.414596319E-3,7.457733154E-3,1.268467305E-2
5.861106374E0,-5.852222443E-3,3.549218178E-3,-2.107620239E-3,7.161530581E-3
5.865821322E0,3.605127335E-3,2.239969373E-2,2.623558044E-3,2.283913919E-2
5.870536322E0,2.247238159E-2,2.207443118E-2,1.680278778E-2,3.570185042E-2
5.875251270E0,3.270387650E-3,2.655115724E-2,2.614021301E-2,3.740280902E-2
5.879966270E0,-6.387472153E-3,3.104409575E-2,2.145767212E-3,3.176696395E-2
5.884681218E0,-6.636381149E-3,2.122673392E-2,1.151466370E-2,2.504402659E-2
5.889396166E0,7.353782654E-3,1.159822941E-2,-2.918243408E-3,1.403970047E-2
5.894111166E0,6.990432739E-3,2.108654380E-2,1.599216461E-2,2.737257402E-2
5.898826114E0,6.571054459E-3,-7.487982512E-3,1.099681854E-2,1.483841827E-2
5.903541114E0,6.152629852E-3,2.594208717E-2,1.079082489E-2,2.876262580E-2
5.908256061E0,-3.807067871E-3,-7.240146399E-3,-1.790142059E-2,1.968182778E-2
5.912971061E0,1.489520073E-2,7.276237011E-3,-1.310157776E-2,2.112964670E-2
5.917686009E0,2.869582176E-2,5.494555831E-2,-2.732086182E-2,6.774137624E-2
5.922401009E0,3.752851486E-2,1.194107533E-2,-4.620933533E-2,6.071475421E-2
5.927115957E0,3.210139275E-2,-6.904751062E-3,-4.593658447E-2,5.646543010E-2
5.931830957E0,3.626704216E-2,-6.628394127E-3,-4.564857483E-2,5.867730685E-2
5.936545905E0,2.485036850E-3,-3.019022942E-2,-3.585815430E-2,4.694073487E-2
5.941260905E0,1.638913155E-2,-2.518823743E-2,-3.091907501E-2,4.311658773E-2
5.945975853E0,1.583552361E-2,-2.973741293E-2,-2.131080627E-2,3.986512260E-2
5.950690853E0,5.795001984E-3,-3.424870968E-2,-2.601909637E-2,4.339987948E-2
5.955405801E0,-1.365065575E-2,-4.353964329E-2,-2.594566345E-2,5.249017424E-2
5.960120749E0,1.785755157E-4,-3.382372856E-2,1.679992676E-2,3.776657308E-2
5.964835749E0,-3.981590271E-4,-9.897887707E-3,2.595424652E-2,2.778038200E-2
5.969550697E0,-3.893589973E-2,4.283487797E-3,3.502941132E-2,5.254914093E-2
5.974265697E0,-2.958822250E-2,3.258401155E-2,2.508258820E-2,5.065882895E-2
5.978980645E0,-4.879522324E-2,1.795479655E-2,2.470970154E-2,5.756663860E-2
5.983695645E0,-5.349802971E-2,2.717635036E-2,2.912044525E-2,6.669777757E-2
5.988410593E0,-4.861879349E-2,1.735594869E-2,9.786605835E-3,5.254325541E-2
5.993125593E0,-2.943873405E-2,1.248824596E-2,4.889488220E-3,3.234969003E-2
5.997840541E0,-3.409385681E-2,7.661074400E-3,-1.418495178E-2,3.771333969E-2
6.002555541E0,-3.854918480E-2,-2.560046315E-2,-2.355575562E-2,5.192587972E-2
6.007270436E0,-3.827548027E-2,-2.541801333E-2,-2.812194824E-2,5.386958107E-2
6.011985489E0,-3.325867653E-2,-4.896587133E-2,5.693435669E-4,5.919561024E-2
6.016700436E0,9.629487991E-3,-4.389646649E-2,-8.965492249E-3,4.582583181E-2
6.021415436E0,-2.377247810E-2,-2.943131328E-2,5.305290222E-3,3.820312842E-2
6.026130384E0,-9.489059448E-3,-1.510468125E-2,2.893066406E-2,3.398789443E-2
6.030845384E0,-2.385282516E-2,2.757716179E-2,1.401901245E-4,3.646199081E-2
6.035560332E0,-2.379417419E-4,1.300764084E-2,1.901054382E-2,2.303597432E-2
6.040275280E0,-5.347490311E-3,2.708768845E-2,4.488945007E-3,2.797300744E-2
6.044990280E0,-9.772777557E-4,4.115742445E-2,9.059906006E-3,4.215412858E-2
6.049705228E0,1.754117012E-2,1.719734073E-2,-1.015281677E-2,2.658046022E-2
6.054420228E0,1.686811447E-2,1.242002845E-2,-2.922248840E-2,3.595475241E-2
6.059135176E0,3.507423401E-2,7.754027843E-3,-2.443981171E-2,4.344687832E-2
6.063850176E0,1.510667801E-2,-1.573109627E-2,-5.767345428E-2,6.165960136E-2
6.068565124E0,5.694675446E-2,-5.693078041E-3,-7.640743256E-2,9.546433748E-2
6.073280124E0,5.561923981E-2,-3.375834227E-2,-5.705642700E-2,8.653647423E-2
6.077995072E0,4.955935478E-2,-5.216968060E-2,-4.736232758E-2,8.614519890E-2
6.082710072E0,2.926445007E-2,-8.464747667E-2,-8.047485352E-2,1.204068328E-1
6.087425020E0,2.332520485E-2,-8.845156431E-2,-7.062149048E-2,1.155644380E-1
6.092140020E0,2.229022980E-2,-1.647037268E-2,-2.760219574E-2,3.911532603E-2
6.096854968E0,2.132034302E-2,2.743065357E-3,1.033401489E-2,2.385106492E-2
6.101569968E0,-1.264524460E-2,3.121629357E-2,2.903938293E-2,4.447072022E-2
6.106284916E0,6.039142609E-3,7.177203894E-3,4.289627075E-2,4.390983425E-2
6.110999864E0,2.472782135E-2,2.615737915E-2,3.296852112E-2,4.881185325E-2
6.115714864E0,5.280399323E-2,5.438190699E-2,4.211902618E-2,8.671600703E-2
6.120429864E0,6.160902977E-2,7.762548327E-2,2.270030975E-2,1.016695248E-1
6.125144759E0,1.818871498E-2,5.798152089E-2,2.244472504E-2,6.478002624E-2
6.129859759E0,4.162168503E-2,6.694042683E-2,1.271438599E-2,7.984385399E-2
6.134574759E0,6.965637207E-2,2.363929152E-2,4.104995728E-2,8.423731516E-2
6.139289707E0,4.530477524E-2,3.771975636E-2,-6.761550903E-3,5.933819386E-2
6.144004707E0,4.499197006E-2,4.693707824E-2,7.555961609E-3,6.545578079E-2
6.148719655E0,6.377148628E-2,3.704112768E-2,-6.687164307E-3,7.405110242E-2
6.153434655E0,3.973650932E-2,3.671911359E-2,-2.079296112E-2,5.796232145E-2
6.158149603E0,5.392146111E-2,3.645327687E-2,-1.103210449E-2,6.601570034E-2
6.162864603E0,4.425668716E-2,-1.865386963E-3,-2.034091949E-2,4.874307164E-2
6.167579551E0,1.574277878E-2,7.592916489E-3,-5.825996399E-3,1.842361795E-2
6.172294551E0,4.910826683E-2,1.222664118E-2,-1.517772675E-2,5.283442074E-2
6.177009499E0,-3.333091736E-3,-6.925165653E-3,-5.504608154E-3,9.453471890E-3
6.181724499E0,1.612186432E-3,-1.637229323E-2,8.836746216E-3,1.867456062E-2
6.186439447E0,1.120591164E-2,1.698926091E-2,1.354789734E-2,2.444898698E-2
6.191154447E0,-7.701635361E-3,1.210668683E-2,8.748054504E-3,1.680522273E-2
6.195869395E0,-4.068899155E-2,7.264792919E-3,-7.581710815E-4,4.133940097E-2
6.200584395E0,-3.074240685E-2,7.262527943E-3,2.301788330E-2,3.908532771E-2
6.205299343E0,-1.138520241E-2,7.188677788E-3,1.337337494E-2,1.897754145E-2
6.210014343E0,-5.388379097E-2,-7.121860981E-3,3.809928894E-3,5.448577237E-2
6.214729291E0,-2.478861809E-2,-1.656734943E-2,-9.088516235E-4,2.982915797E-2
6.219444291E0,-4.339098930E-2,-6.915628910E-3,1.813983917E-2,4.753585637E-2
6.224159239E0,-4.728317261E-3,-1.643443108E-2,3.860473633E-3,1.753142223E-2
6.228874239E0,-2.813625336E-2,7.399946451E-3,8.668899536E-3,3.035717015E-2
6.233589186E0,-5.603885651E-2,-2.256214619E-3,-7.858276367E-4,5.608976260E-2
6.238304186E0,-3.625392914E-2,2.476960421E-3,-1.965141296E-2,4.131175066E-2
6.243019134E0,-4.985117912E-2,-2.392381430E-3,9.096145630E-3,5.073069499E-2
6.247734134E0,-3.491473198E-2,-2.151197195E-2,1.385307312E-2,4.328638448E-2
6.252449082E0,-4.378032684E-2,-1.683241129E-2,9.094238281E-3,4.777815671E-2
6.257164082E0,-4.782581329E-2,-7.499605417E-3,1.860713959E-2,5.186307108E-2
6.261879030E0,-4.240059853E-2,1.604622602E-2,1.853561401E-2,4.897816975E-2
6.266594030E0,-4.187560081E-2,6.247073412E-3,8.939743042E-3,4.327251871E-2
6.271308978E0,-4.129862785E-2,1.544108987E-2,8.929252625E-3,4.498594749E-2
6.276023978E0,-2.659869194E-2,8.476674557E-4,4.137039185E-3,2.693184075E-2
6.280738926E0,6.961584091E-3,6.131827831E-4,4.131317139E-3,8.118338961E-3
6.285453926E0,-3.569006920E-2,-9.164422750E-3,8.870124817E-3,3.790048546E-2
6.290168874E0,-3.052878380E-2,-1.400771737E-2,-3.388500214E-2,4.771180311E-2
6.294883874E0,-1.117539406E-2,-2.839124203E-2,-1.933860779E-2,3.612386756E-2
6.299598822E0,-3.480267525E-2,-3.305628896E-2,-1.918220520E-2,5.169043858E-2
6.304313770E0,-1.562547684E-2,-9.225904942E-3,-9.572029114E-3,2.051576442E-2
6.309028770E0,-1.353979111E-3,-1.406869292E-2,-2.377128601E-2,2.765565799E-2
6.313743718E0,-6.130933762E-3,-1.881757379E-2,-3.783035278E-2,4.269455497E-2
6.318458718E0,-6.122112274E-3,-2.347338200E-2,-3.278732300E-2,4.078588568E-2
6.323173666E0,-2.035045624E-2,-1.859885454E-2,-2.778530121E-2,3.914181169E-2
6.327888666E0,-1.542401314E-2,-1.851072907E-2,-2.755355835E-2,3.660253884E-2
6.332603614E0,8.444309235E-3,-1.842331886E-2,-2.732372284E-2,3.401927198E-2
6.337318614E0,-1.106500626E-3,1.003089547E-2,-2.710056305E-2,2.891857059E-2
6.342033561E0,-1.035213470E-3,-4.445910454E-3,-1.262474060E-2,1.342467362E-2
6.346748561E0,1.332640648E-2,-3.314647079E-2,-2.198505402E-2,4.194787522E-2
6.351463509E0,1.807928085E-2,-2.371329069E-2,1.144313812E-2,3.193941079E-2
6.356178509E0,3.809690475E-3,-3.808751702E-2,1.879692078E-3,3.832369941E-2
6.360893457E0,-3.412079811E-2,-5.715924501E-2,1.610279083E-2,6.848874380E-2
6.365608457E0,-5.462169647E-4,-3.817757964E-2,3.495216370E-2,5.176369082E-2
6.370323405E0,-3.859877586E-2,-5.737361312E-2,3.934955597E-2,7.956119994E-2
6.375038405E0,-3.836536407E-2,-6.026029587E-4,3.896045685E-2,5.468255196E-2
6.379753353E0,-3.823804855E-2,-6.017565727E-3,5.277538300E-2,6.544922081E-2
6.384468301E0,-6.189179420E-2,-1.140537858E-2,7.120227814E-2,9.502863391E-2
6.389183301E0,-1.421523094E-2,-2.457439899E-3,7.047748566E-2,7.193877804E-2
6.393898301E0,-4.766750336E-2,1.116174459E-2,8.872413635E-2,1.013348301E-1
6.398613249E0,-4.292798042E-2,2.008226514E-2,5.935001373E-2,7.595085916E-2
6.403328249E0,-2.399086952E-2,1.949045062E-2,5.395221710E-2,6.217942760E-2
6.408043197E0,-1.928806305E-2,9.412050247E-3,-2.253150940E-2,3.111727787E-2
6.412758197E0,4.355669022E-3,1.372647285E-2,-2.244377136E-2,2.666666051E-2
6.417473145E0,-5.257606506E-3,-9.246170521E-4,-6.501197815E-2,6.523077990E-2
6.422188145E0,4.350662231E-3,3.666076064E-2,-7.870388031E-2,8.693238987E-2
6.426903093E0,-5.053997040E-3,7.563740015E-3,-8.751392365E-2,8.798545267E-2
6.431618093E0,4.654169083E-3,3.562280536E-2,-9.148883820E-2,9.828963865E-2
6.436333041E0,9.586334229E-3,4.442951083E-2,-9.541511536E-2,1.056878587E-1
6.441048041E0,9.728908539E-3,5.318081379E-2,-6.608867645E-2,8.538479825E-2
6.445762989E0,1.935935020E-2,1.921880245E-2,-3.700542450E-2,4.597334282E-2
6.450477989E0,3.829121590E-2,3.301542997E-2,-1.294517517E-2,5.219016566E-2
6.455192936E0,1.915001869E-2,3.717008233E-2,-2.229118347E-2,4.738391179E-2
6.459907936E0,4.288029671E-2,5.558097363E-2,-7.826805115E-3,7.063443461E-2
6.464622884E0,5.217552185E-2,5.485531688E-2,1.770973206E-3,7.572666120E-2
6.469337884E0,3.285956383E-2,6.371679902E-2,-2.669334412E-2,7.649912439E-2
6.474052832E0,4.223275185E-2,3.928411007E-2,2.102947235E-2,6.139287695E-2
6.478767832E0,6.090998650E-2,4.845401645E-2,2.087020874E-2,8.058153497E-2
6.483482728E0,6.524181366E-2,1.487168670E-2,1.598453522E-2,6.879801364E-2
6.488197780E0,5.044198036E-2,6.418824196E-4,2.059745789E-2,5.448908760E-2
6.492912728E0,6.407189369E-2,-8.508831263E-3,1.089000702E-2,6.554540429E-2
6.497627728E0,1.566529274E-2,3.017869592E-2,-8.291244507E-3,3.499856882E-2
6.502342676E0,4.319810867E-2,8.308616281E-2,-3.692245483E-2,1.006610884E-1
6.507057676E0,5.112242699E-2,1.121290326E-1,-6.543159485E-2,1.395267576E-1
6.511772676E0,7.762098312E-2,1.413423717E-1,-9.379959106E-2,1.865503855E-1
6.516487624E0,8.740186691E-3,1.947222948E-1,-1.599454880E-1,2.521422656E-1
6.521202572E0,-7.379055023E-2,2.533175349E-1,-2.254915237E-1,3.470752744E-1
6.525917572E0,-1.221501827E-1,3.502712548E-1,-4.137496948E-1,5.556972458E-1
6.530632520E0,-1.127550602E-1,4.565593898E-1,-6.951856613E-1,8.393111960E-1
6.535347520E0,-1.124939919E-1,5.576368570E-1,-9.646177292E-1,1.119866566E0
6.540062468E0,-2.023785114E-1,6.342089176E-1,-1.155858994E0,1.333862072E0
6.544777468E0,-3.632624149E-1,7.334733605E-1,-1.269783974E0,1.510726346E0
6.549492416E0,-4.908421040E-1,7.544302940E-1,-1.549361229E0,1.791817864E0
6.554207416E0,-6.667628288E-1,6.100417376E-1,-2.022024155E0,2.214792377E0
6.558922416E0,-8.770687580E-1,1.951414943E-1,-2.582101822E0,2.733967744E0
6.563637364E0,-1.339386344E0,-3.655207157E-1,-2.806414604E0,3.131057985E0
6.568352259E0,-1.907919884E0,-8.893010616E-1,-2.407787323E0,3.198195500E0
6.573067311E0,-2.560705185E0,-1.203913212E0,-1.931640625E0,3.426055103E0
6.577782259E0,-3.355705738E0,-1.643736482E0,-1.678912163E0,4.096507863E0
6.582497259E0,-4.476523399E0,-2.307187557E0,-1.495661736E0,5.253511225E0
6.587212259E0,-5.851811409E0,-3.186019897E0,-1.026603699E0,6.741538008E0
6.591927207E0,-7.188125134E0,-3.927970886E0,-2.905683517E-1,8.196494872E0
6.596642207E0,-8.364258766E0,-4.083085060E0,6.103992462E-2,9.307853361E0
6.601357155E0,-8.439270020E0,-3.840545654E0,-4.968929291E-2,9.272191672E0
6.606072155E0,-7.295338631E0,-3.285678864E0,-5.332279205E-1,8.018851747E0
6.610787103E0,-5.259414673E0,-2.508668661E0,-1.084997177E0,5.927232071E0
6.615502103E0,-3.011315823E0,-1.860853672E0,-1.438710213E0,3.821084460E0
6.620217051E0,-1.639053941E0,-1.160061359E0,-1.461458206E0,2.483566038E0
6.624932051E0,-5.508086681E-1,-6.538918614E-1,-1.396454811E0,1.637391460E0
6.629646999E0,2.089238167E-2,-5.753899813E-1,-1.452248573E0,1.562221508E0
6.634361999E0,3.453571796E-1,-3.876100183E-1,-1.736859322E0,1.812786091E0
6.639076947E0,3.005201817E-1,1.844134927E-1,-1.517985344E0,1.558396683E0
6.643791947E0,-1.710705757E-1,3.588828444E-1,-1.164282799E0,1.230291215E0
6.648506895E0,-8.758013248E-1,-2.597250938E-1,-5.954570770E-1,1.090437626E0
6.653221895E0,-1.472144365E0,-7.006725669E-1,-1.997985840E-1,1.642580455E0
6.657936843E0,-1.260529160E0,-7.266546488E-1,8.249626160E-1,1.672580061E0
6.662651843E0,-8.799797297E-1,-1.158923507E-1,1.091120720E0,1.406534673E0
6.667366791E0,-3.111515045E-1,-4.477918148E-3,3.988313675E-1,5.058673445E-1
6.672081791E0,-5.897450447E-2,-2.323278427E0,1.106178284E0,2.573855287E0
6.676796739E0,-6.802868843E-2,-4.609899521E0,4.713384628E0,6.593314504E0
6.681511739E0,2.858898640E-1,-4.940340519E0,6.275807381E0,7.992149632E0
6.686226686E0,1.088684082E0,-3.871268034E0,5.813700199E0,7.069021094E0
6.690941686E0,3.521882534E0,-1.579263091E0,4.532747746E0,5.953446953E0
6.695656634E0,6.447231293E0,2.764385343E-1,2.430649281E0,6.895742566E0
6.700371634E0,9.677616119E0,1.663287401E0,2.614727020E-1,9.822990721E0
6.705086582E0,1.340553761E1,2.896760702E0,-1.601488113E0,1.380812895E1
6.709801582E0,1.683175659E1,3.967670679E0,-1.974907875E0,1.740547907E1
6.714516530E0,2.059422874E1,4.767082691E0,-6.751480103E-1,2.114954278E1
6.719231530E0,2.410366249E1,5.509731293E0,1.143575668E0,2.475179690E1
6.723946478E0,2.524860954E1,5.404047966E0,3.097051144E0,2.600553295E1
6.728661478E0,2.382666779E1,4.434213161E0,4.557453632E0,2.466055003E1
6.733376426E0,2.131477356E1,3.195253849E0,4.770650864E0,2.207460823E1
6.738091426E0,1.860504341E1,2.185596466E0,4.012812614E0,1.915795233E1
6.742806426E0,1.597307587E1,1.500841975E0,3.619688511E0,1.644669645E1
6.747521374E0,1.346135807E1,9.354400039E-1,3.786651611E0,1.401506117E1
6.752236322E0,1.106103992E1,5.475147367E-1,3.815508366E0,1.171343164E1
6.756951322E0,8.788099289E0,1.507039666E-1,3.711867809E0,9.541035763E0
6.761666270E0,6.621060371E0,-3.452355862E-1,3.443421841E0,7.470929127E0
6.766381270E0,4.302956581E0,-9.862778783E-1,3.536702156E0,5.656539714E0
6.771096218E0,2.116677046E0,-1.574789762E0,3.484953403E0,4.370947808E0
6.775811218E0,1.379811764E-1,-2.113225222E0,3.818827629E0,4.366715482E0
6.780526218E0,-1.997396708E0,-2.684813261E0,3.945054531E0,5.173129721E0
6.785241166E0,-3.600048065E0,-3.197084188E0,3.352905750E0,5.867168853E0
6.789956114E0,-4.428399086E0,-3.134222269E0,1.360866547E0,5.593391230E0
6.794671114E0,-5.384853363E0,-3.243414879E0,-5.997638702E-1,6.314752768E0
6.799386114E0,-6.184531689E0,-3.420792580E0,-1.875336647E0,7.312122922E0
6.804101061E0,-6.419956207E0,-3.444320440E0,-2.520928383E0,7.709361900E0
6.808816061E0,-6.395485878E0,-3.331082344E0,-1.875755310E0,7.450960152E0
6.813531009E0,-6.109841824E0,-2.996129990E0,-7.278747559E-1,6.843739013E0
6.818246009E0,-5.504002571E0,-2.150880337E0,6.395978928E-1,5.943855314E0
6.822960957E0,-4.890100956E0,-1.371122122E0,1.745238781E0,5.370188231E0
6.827675957E0,-4.500229836E0,-9.122865200E-1,2.814996243E0,5.385957585E0
6.832390905E0,-4.597924709E0,-9.692952633E-1,3.533349991E0,5.879201230E0
6.837105905E0,-5.365939140E0,-1.628186464E0,3.345867634E0,6.529864029E0
6.841820853E0,-7.292703629E0,-2.851429939E0,2.143261433E0,8.118358731E0
6.846535853E0,-1.038561344E1,-3.965846062E0,2.519865036E-1,1.111991001E1
6.851250801E0,-1.306678200E1,-4.366573811E0,-2.101533890E0,1.393643438E1
6.855965801E0,-1.473520565E1,-4.286071777E0,-4.122419357E0,1.588996659E1
6.860680749E0,-1.615137100E1,-4.252017021E0,-5.084523201E0,1.745848820E1
6.865395749E0,-1.710263443E1,-4.173364639E0,-4.860649109E0,1.826315927E1
6.870110697E0,-1.727688026E1,-3.939618587E0,-4.179387093E0,1.820655000E1
6.874825697E0,-1.650863075E1,-3.530520916E0,-3.328128815E0,1.720685644E1
6.879540645E0,-1.505138493E1,-3.212723732E0,-2.612596512E0,1.561061954E1
6.884255645E0,-1.309180546E1,-2.989714146E0,-1.884173393E0,1.356037869E1
6.888970593E0,-1.076986122E1,-2.799031019E0,-1.358070374E0,1.121021144E1
6.893685593E0,-8.547782898E0,-2.621498585E0,-9.916172028E-1,8.995562905E0
6.898400541E0,-7.050381660E0,-2.419228077E0,-9.909067154E-1,7.519470870E0
6.903115541E0,-5.998127937E0,-2.050311089E0,-1.298965454E0,6.470597002E0
6.907830436E0,-4.739161491E0,-1.435341835E0,-1.795819283E0,5.267335638E0
6.912545489E0,-3.992236614E0,-1.445548534E0,-2.351646423E0,4.853638290E0
6.917260436E0,-3.780545235E0,-1.822067499E0,-2.731176376E0,5.007172520E0
6.921975436E0,-3.758142471E0,-2.429400206E0,-2.785045624E0,5.270872729E0
6.926690384E0,-3.701298237E0,-2.701686144E0,-2.780320168E0,5.359934411E0
6.931405384E0,-3.833560944E0,-3.529656649E0,-1.569299698E0,5.442184038E0
6.936120332E0,-3.906501770E0,-3.915616989E0,-4.389715195E-1,5.548469021E0
6.940835332E0,-4.169476509E0,-3.753615379E0,3.371944427E-1,5.620308076E0
6.945550280E0,-4.790688038E0,-3.493013382E0,5.957908630E-1,5.958758353E0
6.950265280E0,-5.501914024E0,-3.248611927E0,6.278610229E-1,6.420182774E0
6.954980280E0,-5.499830723E0,-3.190160275E0,8.146133423E-1,6.410058927E0
6.959695228E0,-4.863866806E0,-3.344328880E0,1.623261452E0,6.121822744E0
6.964410228E0,-3.869725704E0,-3.209363937E0,2.704353333E0,5.708618121E0
6.969125176E0,-2.372154474E0,-2.296629190E0,2.916858196E0,4.405642317E0
6.973840176E0,-9.407202005E-1,-9.021485448E-1,3.109004498E0,3.371162330E0
6.978555124E0,6.335608959E-1,2.424880862E-1,3.162178516E0,3.234126289E0
6.983270124E0,2.559823513E0,8.594453335E-1,2.886360645E0,3.952520775E0
6.987985072E0,4.321610451E0,1.120230198E0,2.893789291E0,5.320267761E0
6.992700072E0,5.630336761E0,1.158682227E0,2.734246254E0,6.365480275E0
6.997415020E0,6.589250565E0,1.175311089E0,2.454945087E0,7.129259046E0
7.002130020E0,7.470767975E0,9.959652424E-1,2.022295952E0,7.803460887E0
7.006844968E0,8.309683800E0,1.125527620E0,1.551520824E0,8.527888024E0
7.011559968E0,9.166545868E0,1.457111478E0,7.760810852E-1,9.314023774E0
7.016274916E0,9.904644966E0,1.591873288E0,-8.780765533E-2,1.003213650E1
7.020989916E0,1.055171967E1,1.423415303E0,-4.523677826E-1,1.065690085E1
7.025704864E0,1.097234535E1,9.289680123E-1,-4.190216064E-1,1.101957001E1
7.030419864E0,1.103061771E1,4.924114943E-1,-9.414577484E-2,1.104200433E1
7.035134811E0,1.082564926E1,2.234761715E-1,1.723899841E-1,1.082932786E1
7.039849811E0,1.020527077E1,8.374489844E-2,3.951902390E-1,1.021326294E1
7.044564759E0,9.224312782E0,4.994663596E-2,5.750322342E-1,9.242353761E0
7.049279759E0,8.239035606E0,2.740213275E-2,8.610515594E-1,8.283952462E0
7.053994707E0,7.509181023E0,-1.357621253E-1,1.100917816E0,7.590668681E0
7.058709707E0,7.044559479E0,-2.955989242E-1,1.400166512E0,7.188439555E0
7.063424707E0,6.663143158E0,-4.090482593E-1,1.639276028E0,6.874010701E0
7.068139655E0,6.211376190E0,-3.614388108E-1,1.808615685E0,6.479423036E0
7.072854655E0,5.559743404E0,-2.340140194E-1,1.874631405E0,5.871946201E0
7.077569603E0,4.894088745E0,-1.271177381E-1,1.923176765E0,5.259930839E0
7.082284603E0,4.271082878E0,-2.629539371E-2,1.877521515E0,4.665611154E0
7.086999551E0,3.666548491E0,1.212051511E-1,1.833290577E0,4.101124585E0
7.091714551E0,3.204408646E0,2.391449511E-1,1.809472561E0,3.687765723E0
7.096429499E0,2.788513184E0,3.471005559E-1,1.844125748E0,3.361113557E0
7.101144499E0,2.485712767E0,4.693446159E-1,1.836804867E0,3.126164494E0
7.105859447E0,2.377761126E0,6.009085178E-1,1.615746021E0,2.936915767E0
7.110574447E0,2.254071236E0,6.841009855E-1,1.377140999E0,2.728616614E0
7.115289395E0,2.195626497E0,6.463462710E-1,8.531818390E-1,2.442633511E0
7.120004395E0,2.164028406E0,4.827998579E-1,3.309431076E-1,2.241793475E0
7.124719343E0,2.096705437E0,2.798757255E-1,-6.071186066E-2,2.116173443E0
7.129434343E0,2.045544386E0,1.622976959E-1,-4.035072327E-1,2.091270060E0
7.134149291E0,1.817960978E0,5.842733383E-2,-5.403394699E-1,1.897462150E0
7.138864291E0,1.407030344E0,-1.607290208E-1,-4.389400482E-1,1.482645127E0
7.143579239E0,1.032134056E0,-3.706729412E-1,-3.962078094E-1,1.166053072E0
7.148294239E0,6.174929142E-1,-5.617743134E-1,-3.830776215E-1,9.184967841E-1
7.153009186E0,2.165861130E-1,-8.007639647E-1,-3.800487518E-1,9.124524783E-1
7.157724186E0,-3.283066750E-1,-1.043537617E0,-1.624021530E-1,1.105952300E0
7.162439134E0,-8.731765747E-1,-1.188949823E0,-4.565525055E-2,1.475846677E0
7.167154134E0,-1.249688864E0,-1.260952830E0,-1.822223663E-1,1.784637018E0
7.171869082E0,-1.525210619E0,-1.211612463E0,-2.325124741E-1,1.961717167E0
7.176584082E0,-1.858823657E0,-1.170091510E0,-2.209806442E-1,2.207526211E0
7.181299030E0,-2.189336300E0,-1.093334436E0,-2.245473862E-1,2.457436704E0
7.186014030E0,-2.344333887E0,-9.817376137E-1,-5.537443161E-1,2.601219499E0
7.190729030E0,-2.395154476E0,-7.640396357E-1,-1.021549225E0,2.713684644E0
7.195443978E0,-2.442152977E0,-5.937654972E-1,-1.317071915E0,2.837489570E0
7.200158978E0,-2.585557938E0,-4.663918614E-1,-1.607769966E0,3.080187572E0
7.204873926E0,-2.768875837E0,-3.773139417E-1,-1.736282349E0,3.289941581E0
7.209588926E0,-2.715258837E0,-3.984573483E-1,-1.832023621E0,3.299652914E0
7.214303874E0,-2.667184830E0,-4.485815763E-1,-2.133444786E0,3.444805800E0
7.219018874E0,-2.595417023E0,-5.420421362E-1,-2.147788048E0,3.412182981E0
7.223733822E0,-2.571946621E0,-7.071853876E-1,-1.928070068E0,3.291272517E0
7.228448822E0,-2.477595568E0,-8.860905170E-1,-1.512927055E0,3.035223958E0
7.233163770E0,-2.455943108E0,-1.011421680E0,-1.108149529E0,2.877955132E0
7.237878770E0,-2.348880768E0,-1.082917094E0,-8.187522888E-1,2.712988316E0
7.242593718E0,-2.123030186E0,-1.062296152E0,-4.964065552E-1,2.425314362E0
7.247308718E0,-1.931577206E0,-1.011910796E0,-2.558984756E-1,2.195549587E0
7.252023666E0,-1.817478061E0,-9.175405502E-1,-8.278560638E-2,2.037636037E0
7.256738666E0,-1.723380327E0,-8.413798809E-1,5.643844604E-2,1.918631063E0
7.261453614E0,-1.629967570E0,-7.787576318E-1,1.475315094E-1,1.812463317E0
7.266168614E0,-1.532288432E0,-7.825075388E-1,1.428050995E-1,1.726446983E0
7.270883561E0,-1.449188352E0,-7.667326927E-1,1.189374924E-1,1.643828467E0
7.275598561E0,-1.337521076E0,-7.794899940E-1,6.164360046E-2,1.549311852E0
7.280313561E0,-1.206718445E0,-7.587708235E-1,1.403236389E-2,1.425517266E0
7.285028509E0,-1.080653191E0,-7.427622080E-1,-7.646369934E-2,1.313527203E0
7.289743509E0,-8.729526997E-1,-6.744301319E-1,-1.857900620E-1,1.118669015E0
7.294458457E0,-6.217916012E-1,-5.824288726E-1,-2.851829529E-1,8.984305780E-1
7.299173457E0,-3.942923546E-1,-5.386127830E-1,-3.603754044E-1,7.585780269E-1
7.303888405E0,-2.001416683E-1,-4.762802422E-1,-3.541078568E-1,6.263321249E-1
7.308603405E0,-2.522397041E-2,-4.195721447E-1,-3.143787384E-1,5.248914407E-1
7.313318353E0,1.111493111E-1,-4.018306136E-1,-2.413005829E-1,4.817135899E-1
7.318033353E0,1.993553638E-1,-3.418963850E-1,-1.445178986E-1,4.213325553E-1
7.322748301E0,2.777419090E-1,-2.921437025E-1,-2.881336212E-2,4.041271097E-1
7.327463301E0,3.559887409E-1,-2.284443974E-1,8.193778992E-2,4.308464086E-1
7.332178249E0,3.677172661E-1,-1.743861437E-1,1.497068405E-1,4.336342387E-1
7.336893249E0,4.037134647E-1,-1.108190864E-1,2.892189026E-1,5.088349488E-1
7.341608249E0,3.534076214E-1,-7.584378123E-2,4.523820877E-1,5.790498936E-1
7.346323197E0,4.176511765E-1,-2.638885379E-2,5.722513199E-1,7.089431923E-1
7.351038145E0,4.481852055E-1,1.857170463E-2,5.628738403E-1,7.197512395E-1
7.355753145E0,5.500960350E-1,4.932120442E-2,6.585702896E-1,8.595074492E-1
7.360468093E0,6.322097778E-1,8.505010605E-2,7.013864517E-1,9.480852696E-1
7.365183093E0,6.085157394E-1,1.112691164E-1,6.770448685E-1,9.170943110E-1
7.369898093E0,5.845131874E-1,1.182324290E-1,5.809183121E-1,8.325266715E-1
7.374613041E0,5.124008656E-1,1.248677969E-1,5.039005280E-1,7.294260455E-1
7.379328041E0,3.588349819E-1,1.596909761E-1,4.125213623E-1,5.695942648E-1
7.384042989E0,2.391107082E-1,1.411622465E-1,3.212947845E-1,4.246540347E-1
7.388757989E0,1.581254005E-1,1.889671981E-1,2.589616776E-1,3.574540456E-1
7.393472936E0,7.297253609E-2,1.979621351E-1,2.207632065E-1,3.053692704E-1
7.398187936E0,4.112005234E-2,1.968918145E-1,2.258243561E-1,3.024134341E-1
7.402902884E0,3.382658958E-2,2.240764499E-1,2.167415619E-1,3.135783765E-1
7.407617884E0,7.018399239E-2,2.459844947E-1,1.887483597E-1,3.178995245E-1
7.412332832E0,1.070740223E-1,2.195838690E-1,1.466331482E-1,2.849266606E-1
7.417047832E0,2.065792084E-1,2.165015638E-1,9.038639069E-2,3.125981383E-1
7.421762780E0,2.299656868E-1,2.225463688E-1,2.957630157E-2,3.213811771E-1
7.426477780E0,2.441353798E-1,2.234215438E-1,2.410888672E-3,3.309457392E-1
7.431192728E0,3.158104420E-1,2.145126462E-1,-1.511669159E-2,3.820738476E-1
7.435907728E0,3.109278679E-1,2.149865329E-1,1.994323730E-2,3.785407258E-1
7.440622676E0,2.820546627E-1,1.915539801E-1,5.492305756E-2,3.453466408E-1
7.445337676E0,2.672436237E-1,2.113051414E-1,6.107330322E-2,3.461198717E-1
7.450052676E0,2.089581490E-1,2.312785685E-1,1.100769043E-1,3.305604470E-1
7.454767624E0,1.549432278E-1,2.373890281E-1,1.540584564E-1,3.226375094E-1
7.459482624E0,5.745148659E-2,2.533898652E-1,2.121562958E-1,3.354361205E-1
7.464197572E0,1.207661629E-2,2.842122912E-1,2.413215637E-1,3.730396336E-1
7.468912572E0,-6.244611740E-2,2.962718010E-1,2.798480988E-1,4.123002013E-1
7.473627520E0,-9.916496277E-2,2.751990855E-1,3.181591034E-1,4.321960684E-1
7.478342520E0,-1.552648544E-1,2.354836762E-1,2.989797592E-1,4.110336157E-1
7.483057468E0,-1.828184128E-1,1.579401195E-1,2.893304825E-1,3.769347178E-1
7.487772468E0,-2.056510448E-1,1.143106818E-1,2.796773911E-1,3.654842367E-1
7.492487416E0,-2.190432549E-1,6.142744422E-2,2.317590714E-1,3.247545928E-1
7.497202416E0,-2.228429317E-1,1.847511530E-2,2.317152023E-1,3.220127903E-1
7.501917416E0,-2.172305584E-1,1.410189271E-2,1.933946609E-1,2.911863214E-1
7.506632364E0,-2.213335037E-1,9.949415922E-3,1.933174133E-1,2.940393393E-1
7.511347364E0,-2.254202366E-1,2.987992764E-2,1.502351761E-1,2.725393573E-1
7.516062311E0,-2.295424938E-1,4.505822062E-2,1.406517029E-1,2.729521959E-1
7.520777311E0,-2.431550026E-1,2.684912086E-2,1.358852386E-1,2.798392908E-1
7.525492259E0,-1.898832321E-1,1.355025172E-2,1.311149597E-1,2.311501326E-1
7.530207259E0,-1.701285839E-1,1.938572526E-2,1.215705872E-1,2.099974978E-1
7.534922207E0,-1.456644535E-1,1.568952203E-2,1.215839386E-1,1.903863132E-1
7.539637207E0,-8.776903152E-2,-1.666247845E-2,9.292125702E-2,1.289007412E-1
7.544352155E0,-5.883646011E-2,-5.851587653E-2,1.072397232E-1,1.355957045E-1
7.549067155E0,-2.521061897E-2,-6.695050001E-2,9.762191772E-2,1.210288543E-1
7.553782103E0,-2.035284042E-2,-1.137214899E-1,9.755420685E-2,1.512072705E-1
7.558497103E0,2.262973785E-2,-1.032052636E-1,5.920886993E-2,1.211161498E-1
7.563212051E0,6.545639038E-2,-1.311578751E-1,8.300209045E-2,1.684525875E-1
7.567927051E0,7.456111908E-2,-1.545142829E-1,6.844902039E-2,1.847140831E-1
7.572641999E0,4.998373985E-2,-1.733161956E-1,7.773017883E-2,1.964150163E-1
7.577356999E0,2.522397041E-2,-1.492777169E-1,8.691787720E-2,1.745703377E-1
7.582071999E0,2.801418304E-4,-1.160003841E-1,1.103477478E-1,1.601024454E-1
7.586786947E0,-1.990532875E-2,-1.165126562E-1,1.146011353E-1,1.646354803E-1
7.591501947E0,-2.100300789E-2,-1.219486892E-1,1.092653275E-1,1.650803469E-1
7.596216895E0,1.745223999E-3,-1.274867952E-1,1.230306625E-1,1.771792106E-1
7.600931895E0,1.006937027E-2,-1.235490143E-1,1.176376343E-1,1.708928441E-1
7.605646843E0,-2.457952499E-2,-1.340640187E-1,1.218242645E-1,1.828071815E-1
7.610361843E0,1.728987694E-2,-1.255016327E-1,1.307821274E-1,1.820812030E-1
7.615076791E0,3.048372269E-2,-7.865855098E-2,1.015129089E-1,1.319897559E-1
7.619791791E0,3.410410881E-2,-9.419119358E-2,9.617233276E-2,1.388675224E-1
7.624506739E0,2.349185944E-2,-8.593341708E-2,8.131027222E-2,1.206141783E-1
7.629221739E0,2.740001678E-2,-7.777744532E-2,8.563804626E-2,1.188863612E-1
